Folder: 1D_CNN_For_Mineral_Classification/raw data/Dataset_2/Clinoferroholmquistite

File: Clinoferroholmquistite__R110165__Raman__532__0__unoriented__Raman_Data_Processed__35798.txt
30, 0.0
36, 0.0
42, 0.0
48, 0.0
54, 0.0
60, 0.0
66, 0.0
72, 0.0
78, 0.0
84, 0.0
90, 0.0
96, 0.0
102, 0.0
108, 0.0
114, 0.0
120, 0.0
126, 0.0
132, 0.0
138, 0.0
144, 0.0
150, 0.0
156, 0.0
162, 0.0
168, 0.0
174.0, 0.00346643
180.0, 0.325694
186.0, 0.692175
192.0, 0.800669
198.0, 0.319519
204.0, 0.143259
210.0, 0.112806
216.0, 0.0786655
222.0, 0.0100739
228.0, 0.00175688
234.0, 0.00360739
240.0, 0.0340314
246.0, 0.0589891
252.0, 0.0611228
258.0, 0.0456505
264.0, 0.0398252
270.0, 0.00779785
276.0, 0.00719014
282.0, 0.0139361
288.0, 0.0123404
294.0, 0.0336808
300.0, 0.0224457
306.0, 0.0366652
312.0, 0.0122392
318.0, 0.0131335
324.0, 0.010244
330.0, 0.0264071
336.0, 0.0304542
342.0, 0.0550893
348.0, 0.0211278
354.0, 0.0252298
360.0, 0.024004
366.0, 0.0351409
372.0, 0.101182
378.0, 0.195576
384.0, 0.309684
390.0, 0.272513
396.0, 0.134796
402.0, 0.104611
408.0, 0.101864
414.0, 0.103871
420.0, 0.0980415
426.0, 0.0453317
432.0, 0.00753925
438.0, 0.0043575
444.0, 0.0300039
450.0, 0.0317584
456.0, 0.0227768
462.0, 0.0156776
468.0, 0.0101964
474.0, 0.0032533
480.0, 0.00588088
486.0, 0.0484208
492.0, 0.0335099
498.0, 0.0329474
504.0, 0.0348591
510.0, 0.0399417
516.0, 0.0457409
522.0, 0.0917733
528.0, 0.134751
534.0, 0.157728
540.0, 0.176314
546.0, 0.179457
552.0, 0.183428
558.0, 0.157946
564.0, 0.138125
570.0, 0.115727
576.0, 0.128528
582.0, 0.0971817
588.0, 0.096449
594.0, 0.10126
600.0, 0.119812
606.0, 0.116681
612.0, 0.0943454
618.0, 0.0362042
624.0, 0.00470701
630.0, 0.00758978
636.0, 0.00466866
642.0, 0.0228036
648.0, 0.0497642
654.0, 0.092441
660.0, 0.204991
666.0, 0.445176
672.0, 0.79549
678.0, 0.952916
684.0, 0.509168
690.0, 0.253238
696.0, 0.144241
702.0, 0.0818504
708.0, 0.0576602
714.0, 0.0269982
720.0, 0.00195206
726.0, 0.0039289
732.0, 0.0244736
738.0, 0.0194776
744.0, 0.0295268
750.0, 0.0369719
756.0, 0.0243539
762.0, 0.00658452
768.0, 0.00235919
774.0, 0.00894922
780.0, 0.0565578
786.0, 0.0888984
792.0, 0.0544048
798.0, 0.00622946
804.0, 0.0205373
810.0, 0.0171996
816.0, 0.021545
822.0, 0.0124447
828.0, 0.0106671
834.0, 0.0320175
840.0, 0.0364295
846.0, 0.0344953
852.0, 0.0547438
858.0, 0.0665039
864.0, 0.0603652
870.0, 0.0741845
876.0, 0.107619
882.0, 0.123307
888.0, 0.106744
894.0, 0.0722171
900.0, 0.047533
906.0, 0.0150406
912.0, 0.0015954
918.0, 0.0122684
924.0, 0.0049483
930.0, 0.00139998
936.0, 0.00126261
942.0, 0.0138444
948.0, 0.0043497
954.0, 0.0131812
960.0, 0.0279785
966.0, 0.0191387
972.0, 0.0427824
978.0, 0.0813441
984.0, 0.160914
990.0, 0.234716
996.0, 0.193874
1002.0, 0.072623
1008.0, 0.0382561
1014.0, 0.0514365
1020.0, 0.0761673
1026.0, 0.0771953
1032.0, 0.0816006
1038.0, 0.106978
1044.0, 0.0980274
1050.0, 0.149606
1056.0, 0.149713
1062.0, 0.120588
1068.0, 0.0480886
1074.0, 0.026469
1080.0, 0.0153289
1086.0, 0.00294892
1092.0, 0.00969594
1098.0, 0.00955803
1104.0, 0.0179041
1110.0, 0.0219271
1116.0, 0.0137113
1122.0, 0.036477
1128.0, 0.0463357
1134.0, 0.0223976
1140.0, 0.0144185
1146.0, 0.0156275
1152.0, 0.0364602
1158.0, 0.0206927
1164.0, 0.020012
1170.0, 0.00320807
1176.0, 0.00278802
1182.0, 0.00172628
1188.0, 0.0136272
1194.0, 0.00120522
1200.0, 0.0239032
1206.0, 0.0197499
1212.0, 0.00416865
1218.0, 0.0147656
1224.0, 0.0217863
1230.0, 0.0137038
1236.0, 0.033123
1242.0, 0.0148907
1248.0, 0.0213177
1254.0, 0.0191521
1260.0, 0.0216178
1266.0, 0.00951308
1272.0, 0.0161542
1278.0, 0.0158214
1284.0, 0.00695048
1290.0, 0.0181763
1296.0, 0.0195457
1302.0, 0.00154107
1308, 0.0
1314, 0.0
1320, 0.0
1326, 0.0
1332, 0.0
1338, 0.0
1344, 0.0
1350, 0.0
1356, 0.0
1362, 0.0
1368, 0.0
1374, 0.0
1380, 0.0
1386, 0.0
1392, 0.0
1398, 0.0
1404, 0.0
1410, 0.0
1416, 0.0
1422, 0.0
1428, 0.0
1434, 0.0
1440, 0.0
1446, 0.0
1452, 0.0
1458, 0.0
1464, 0.0
1470, 0.0
1476, 0.0
1482, 0.0
1488, 0.0
1494, 0.0
1500, 0.0
1506, 0.0
1512, 0.0
1518, 0.0
1524, 0.0
1530, 0.0
1536, 0.0
1542, 0.0
1548, 0.0
1554, 0.0
1560, 0.0
1566, 0.0
1572, 0.0
1578, 0.0
1584, 0.0
1590, 0.0
1596, 0.0
1599, 0.0

File: Clinoferroholmquistite__R110165__Raman__780__0__unoriented__Raman_Data_Processed__35801.txt
30, 0.0
36, 0.0
42, 0.0
48, 0.0
54, 0.0
60, 0.0
66, 0.0
72, 0.0
78, 0.0
84, 0.0
90, 0.0
96, 0.0
102, 0.0
108, 0.0
114, 0.0
120, 0.0
126, 0.0
132, 0.0
138, 0.0
144, 0.0
150, 0.0
156, 0.0
162.0, 0.00562625
168.0, 0.0773428
174.0, 0.253228
180.0, 0.480308
186.0, 0.871346
192.0, 0.879792
198.0, 0.265799
204.0, 0.0799629
210.0, 0.0953717
216.0, 0.114627
222.0, 0.0497822
228.0, 0.0293307
234.0, 0.029359
240.0, 0.0492394
246.0, 0.0606407
252.0, 0.0514552
258.0, 0.0321836
264.0, 0.0120763
270.0, 0.0126432
276.0, 0.00194195
282.0, 0.00422785
288.0, 0.0250915
294.0, 0.0530615
300.0, 0.0649809
306.0, 0.0550968
312.0, 0.0356907
318.0, 0.019972
324.0, 0.0152977
330.0, 0.00488026
336.0, 0.0176096
342.0, 0.0211109
348.0, 0.0177943
354.0, 0.0187357
360.0, 0.0183393
366.0, 0.0207179
372.0, 0.0520942
378.0, 0.112678
384.0, 0.190848
390.0, 0.160511
396.0, 0.0799238
402.0, 0.0675608
408.0, 0.0823593
414.0, 0.110782
420.0, 0.118629
426.0, 0.054323
432.0, 0.00496999
438.0, 0.00143648
444.0, 0.0153563
450.0, 0.0285057
456.0, 0.0180203
462.0, 0.000783219
468.0, 0.00819218
474.0, 0.00241249
480.0, 0.00361826
486.0, 0.0135231
492.0, 0.0180938
498.0, 0.0281251
504.0, 0.032357
510.0, 0.0319221
516.0, 0.0427966
522.0, 0.076546
528.0, 0.105671
534.0, 0.119591
540.0, 0.146877
546.0, 0.162314
552.0, 0.156863
558.0, 0.123853
564.0, 0.0921847
570.0, 0.0737321
576.0, 0.063383
582.0, 0.0455596
588.0, 0.0391774
594.0, 0.0366944
600.0, 0.0322518
606.0, 0.036116
612.0, 0.0284422
618.0, 0.00429946
624.0, 0.00696792
630.0, 0.00430713
636.0, 0.0108363
642.0, 0.020195
648.0, 0.0184757
654.0, 0.0419241
660.0, 0.097959
666.0, 0.210715
672.0, 0.447417
678.0, 0.566067
684.0, 0.260256
690.0, 0.126428
696.0, 0.0667778
702.0, 0.0538923
708.0, 0.0352342
714.0, 0.0113455
720.0, 0.00675322
726.0, 0.00237489
732.0, 0.00812276
738.0, 0.00662336
744.0, 0.0118381
750.0, 0.0218085
756.0, 0.0058763
762.0, 0.0022768
768.0, 7.18715e-05
774.0, 0.00858794
780.0, 0.030608
786.0, 0.0366303
792.0, 0.022955
798.0, 0.0120497
804.0, 0.00385647
810.0, 0.00227784
816.0, 0.00134342
822.0, 0.00918208
828.0, 0.0111469
834.0, 0.0096014
840.0, 0.0135983
846.0, 0.0192878
852.0, 0.0193926
858.0, 0.0139155
864.0, 0.0180094
870.0, 0.0233837
876.0, 0.0336284
882.0, 0.0317334
888.0, 0.029876
894.0, 0.0223779
900.0, 0.00720664
906.0, 0.0114168
912.0, 0.00275548
918.0, 0.00206963
924.0, 0.000702595
930.0, 0.00192823
936.0, 0.00587017
942.0, 0.000549775
948.0, 0.00279605
954.0, 0.00633666
960.0, 0.00902253
966.0, 0.00401623
972.0, 0.0124469
978.0, 0.0237045
984.0, 0.0541629
990.0, 0.0733001
996.0, 0.0636776
1002.0, 0.0249207
1008.0, 0.0111425
1014.0, 0.0120703
1020.0, 0.0244753
1026.0, 0.0301708
1032.0, 0.0359352
1038.0, 0.0482603
1044.0, 0.0505964
1050.0, 0.0564154
1056.0, 0.0699775
1062.0, 0.0674566
1068.0, 0.0464413
1074.0, 0.0157345
1080.0, 0.010108
1086.0, 0.00493876
1092.0, 0.00949034
1098.0, 0.00287866
1104.0, 0.0025788
1110.0, 0.00476706
1116.0, 0.00129743
1122.0, 0.0100127
1128.0, 0.00842256
1134.0, 0.00304717
1140.0, 0.0121297
1146.0, 0.0102372
1152.0, 0.0118747
1158.0, 0.00748626
1164.0, 0.00361595
1170.0, 0.000912735
1176.0, 0.00304313
1182.0, 0.00183364
1188.0, 0.0018602
1194.0, 0.00484507
1200.0, 0.00570048
1206.0, 0.0036899
1212.0, 0.00592397
1218.0, 0.0135591
1224.0, 0.00715024
1230.0, 0.0107559
1236.0, 0.00534487
1242.0, 0.00591937
1248.0, 0.00497046
1254.0, 0.00488814
1260.0, 0.00611058
1266.0, 0.00938363
1272.0, 0.00454132
1278.0, 0.0100743
1284.0, 7.99295e-05
1290, 0.0
1296, 0.0
1302, 0.0
1308, 0.0
1314, 0.0
1320, 0.0
1326, 0.0
1332, 0.0
1338, 0.0
1344, 0.0
1350, 0.0
1356, 0.0
1362, 0.0
1368, 0.0
1374, 0.0
1380, 0.0
1386, 0.0
1392, 0.0
1398, 0.0
1404, 0.0
1410, 0.0
1416, 0.0
1422, 0.0
1428, 0.0
1434, 0.0
1440, 0.0
1446, 0.0
1452, 0.0
1458, 0.0
1464, 0.0
1470, 0.0
1476, 0.0
1482, 0.0
1488, 0.0
1494, 0.0
1500, 0.0
1506, 0.0
1512, 0.0
1518, 0.0
1524, 0.0
1530, 0.0
1536, 0.0
1542, 0.0
1548, 0.0
1554, 0.0
1560, 0.0
1566, 0.0
1572, 0.0
1578, 0.0
1584, 0.0
1590, 0.0
1596, 0.0
1599, 0.0