Folder: 1D_CNN_For_Mineral_Classification/raw data/Dataset_2/Cubiczirconia

File: Cubiczirconia__R040142-3__Raman__514__0__ccw__Raman_Data_Processed__2844.txt
30, 0.0
36, 0.0
42, 0.0
48, 0.0
54, 0.0
60, 0.0
66, 0.0
72, 0.0
78, 0.0
84, 0.0
90, 0.0
96, 0.0
102, 0.0
108, 0.0
114, 0.0
120, 0.0
126, 0.0
132, 0.0
138, 0.0
144, 0.0
150, 0.0
156, 0.0
162, 0.0
168, 0.0
174, 0.0
180, 0.0
186, 0.0
192, 0.0
198, 0.0
204, 0.0
210, 0.0
216, 0.0
222, 0.0
228, 0.0
234, 0.0
240, 0.0
246, 0.0
252, 0.0
258, 0.0
264, 0.0
270, 0.0
276, 0.0
282, 0.0
288, 0.0
294, 0.0
300, 0.0
306, 0.0
312, 0.0
318, 0.0
324, 0.0
330.0, 0.000314423
336.0, 0.0137581
342.0, 0.0410158
348.0, 0.0841795
354.0, 0.0883684
360.0, 0.0541196
366.0, 0.0716894
372.0, 0.113256
378.0, 0.140582
384.0, 0.138515
390.0, 0.153347
396.0, 0.16184
402.0, 0.134642
408.0, 0.125474
414.0, 0.112725
420.0, 0.0956141
426.0, 0.0775162
432.0, 0.0386475
438.0, 0.0230563
444.0, 0.0136197
450.0, 0.00305465
456.0, 0.00873196
462.0, 0.0107075
468.0, 0.00617744
474.0, 0.00339079
480.0, 0.0126952
486.0, 0.0278074
492.0, 0.0277124
498.0, 0.0406457
504.0, 0.0543069
510.0, 0.0646806
516.0, 0.0831342
522.0, 0.105763
528.0, 0.128778
534.0, 0.153152
540.0, 0.172084
546.0, 0.20242
552.0, 0.217356
558.0, 0.249803
564.0, 0.292847
570.0, 0.330568
576.0, 0.36308
582.0, 0.395209
588.0, 0.447428
594.0, 0.495817
600.0, 0.545745
606.0, 0.615346
612.0, 0.663629
618.0, 0.702813
624.0, 0.686213
630.0, 0.635329
636.0, 0.545975
642.0, 0.41859
648.0, 0.321501
654.0, 0.27802
660.0, 0.245569
666.0, 0.237836
672.0, 0.242221
678.0, 0.246415
684.0, 0.252547
690.0, 0.243553
696.0, 0.242711
702.0, 0.242238
708.0, 0.21477
714.0, 0.188534
720.0, 0.179624
726.0, 0.149047
732.0, 0.127458
738.0, 0.0973383
744.0, 0.083392
750.0, 0.0591391
756.0, 0.0490465
762.0, 0.0355515
768.0, 0.0157962
774.0, 0.00894629
780.0, 0.00268794
786.0, 0.00421664
792.0, 0.00562167
798.0, 0.00711589
804.0, 0.0110491
810.0, 0.0107364
816.0, 0.0095406
822.0, 0.0159187
828.0, 0.00305346
834.0, 0.0086039
840.0, 0.01109
846.0, 0.0130583
852.0, 0.00989665
858.0, 0.00909458
864.0, 0.00280056
870.0, 0.00500364
876.0, 0.0111942
882.0, 0.023448
888.0, 0.01964
894.0, 0.0259689
900.0, 0.0373015
906.0, 0.0548629
912.0, 0.0637119
918.0, 0.0832779
924.0, 0.112648
930.0, 0.152733
936.0, 0.236298
942.0, 0.428862
948.0, 0.693023
954.0, 0.925749
960.0, 0.913827
966.0, 0.696285
972.0, 0.42781
978.0, 0.23869
984.0, 0.17523
990.0, 0.231701
996.0, 0.385281
1002.0, 0.573886
1008.0, 0.753066
1014.0, 0.897304
1020.0, 0.983451
1026.0, 0.9143
1032.0, 0.833337
1038.0, 0.775792
1044.0, 0.655857
1050.0, 0.59593
1056.0, 0.660651
1062.0, 0.763127
1068.0, 0.835768
1074.0, 0.8794
1080.0, 0.871489
1086.0, 0.855325
1092.0, 0.83929
1098.0, 0.793302
1104.0, 0.725969
1110.0, 0.664835
1116.0, 0.561096
1122.0, 0.493767
1128.0, 0.387729
1134.0, 0.316511
1140.0, 0.273248
1146.0, 0.255735
1152.0, 0.224707
1158.0, 0.205931
1164.0, 0.209768
1170.0, 0.207001
1176.0, 0.226128
1182.0, 0.230642
1188.0, 0.236556
1194.0, 0.236718
1200.0, 0.234201
1206.0, 0.231874
1212.0, 0.220264
1218.0, 0.210239
1224.0, 0.185444
1230.0, 0.150696
1236.0, 0.117233
1242.0, 0.0891264
1248.0, 0.066774
1254.0, 0.0442483
1260.0, 0.0314493
1266.0, 0.0166322
1272.0, 0.00701499
1278.0, 0.00605159
1284.0, 0.00878815
1290.0, 0.00909507
1296.0, 0.00613175
1302.0, 0.0142136
1308.0, 0.0120118
1314.0, 0.0164271
1320.0, 0.019948
1326.0, 0.00735967
1332.0, 0.00701373
1338.0, 0.00326495
1344.0, 0.0090637
1350.0, 0.00668294
1356.0, 0.0190197
1362.0, 0.0260324
1368.0, 0.0393708
1374.0, 0.0413107
1380.0, 0.0270672
1386.0, 0.0296268
1392.0, 0.032905
1398.0, 0.0464091
1404.0, 0.0615457
1410.0, 0.0647349
1416.0, 0.059359
1422.0, 0.0608482
1428.0, 0.0508268
1434.0, 0.0656206
1440.0, 0.0667571
1446.0, 0.0781653
1452.0, 0.0732739
1458.0, 0.0720326
1464.0, 0.0759793
1470.0, 0.0787407
1476.0, 0.102473
1482.0, 0.0819678
1488.0, 0.0581749
1494.0, 0.0428582
1500.0, 0.0425339
1506.0, 0.0398185
1512.0, 0.0395762
1518.0, 0.0359892
1524.0, 0.0311843
1530.0, 0.0156222
1536, 0.0
1542, 0.0
1548, 0.0
1554, 0.0
1560, 0.0
1566, 0.0
1572, 0.0
1578, 0.0
1584, 0.0
1590, 0.0
1596, 0.0
1599, 0.0

File: Cubiczirconia__R040142-3__Raman__514__45__ccw__Raman_Data_Processed__2846.txt
30, 0.0
36, 0.0
42, 0.0
48, 0.0
54, 0.0
60, 0.0
66, 0.0
72, 0.0
78, 0.0
84, 0.0
90, 0.0
96, 0.0
102, 0.0
108, 0.0
114, 0.0
120, 0.0
126, 0.0
132, 0.0
138, 0.0
144, 0.0
150, 0.0
156, 0.0
162, 0.0
168, 0.0
174, 0.0
180, 0.0
186, 0.0
192, 0.0
198, 0.0
204, 0.0
210, 0.0
216, 0.0
222, 0.0
228, 0.0
234, 0.0
240.0, 0.000617052
246.0, 0.00746629
252.0, 0.0146
258.0, 0.0221171
264.0, 0.0273522
270.0, 0.0431308
276.0, 0.0686881
282.0, 0.0834517
288.0, 0.0789168
294.0, 0.0444536
300.0, 0.00811465
306.0, 0.0073703
312.0, 0.000505628
318.0, 0.0130865
324.0, 0.0264626
330.0, 0.0202757
336.0, 0.047388
342.0, 0.0902084
348.0, 0.121215
354.0, 0.127391
360.0, 0.112288
366.0, 0.11247
372.0, 0.114834
378.0, 0.11354
384.0, 0.0967194
390.0, 0.085199
396.0, 0.0645112
402.0, 0.040645
408.0, 0.0300682
414.0, 0.019531
420.0, 0.0168214
426.0, 0.00503202
432.0, 0.00694
438.0, 0.00763795
444.0, 0.00294898
450.0, 0.00341205
456.0, 0.0185372
462.0, 0.0358602
468.0, 0.0539981
474.0, 0.0815582
480.0, 0.103816
486.0, 0.1277
492.0, 0.14055
498.0, 0.157414
504.0, 0.176733
510.0, 0.197048
516.0, 0.207634
522.0, 0.236649
528.0, 0.261528
534.0, 0.291379
540.0, 0.305532
546.0, 0.335921
552.0, 0.362553
558.0, 0.380535
564.0, 0.417872
570.0, 0.450345
576.0, 0.490515
582.0, 0.536934
588.0, 0.594538
594.0, 0.667388
600.0, 0.760344
606.0, 0.874271
612.0, 0.957274
618.0, 0.996051
624.0, 0.957281
630.0, 0.813226
636.0, 0.602728
642.0, 0.401817
648.0, 0.279662
654.0, 0.226989
660.0, 0.191334
666.0, 0.176127
672.0, 0.170469
678.0, 0.168756
684.0, 0.168118
690.0, 0.160594
696.0, 0.150676
702.0, 0.143515
708.0, 0.123392
714.0, 0.10085
720.0, 0.0879921
726.0, 0.0730761
732.0, 0.0569587
738.0, 0.0393781
744.0, 0.0274622
750.0, 0.0193881
756.0, 0.0102337
762.0, 0.00474728
768.0, 0.00348792
774.0, 0.0069257
780.0, 0.00827621
786.0, 0.0119215
792.0, 0.00842354
798.0, 0.00721278
804.0, 0.00558231
810.0, 0.0102346
816.0, 0.00340949
822.0, 0.00376133
828.0, 0.00126795
834.0, 0.00578772
840.0, 0.0106696
846.0, 0.0131356
852.0, 0.01298
858.0, 0.015166
864.0, 0.0146886
870.0, 0.0143804
876.0, 0.0188036
882.0, 0.019824
888.0, 0.0230685
894.0, 0.0270981
900.0, 0.0329515
906.0, 0.0416306
912.0, 0.0413047
918.0, 0.0511922
924.0, 0.0599468
930.0, 0.0792122
936.0, 0.117179
942.0, 0.20587
948.0, 0.328492
954.0, 0.435426
960.0, 0.439084
966.0, 0.333792
972.0, 0.205581
978.0, 0.115235
984.0, 0.0832572
990.0, 0.111547
996.0, 0.182019
1002.0, 0.274236
1008.0, 0.362784
1014.0, 0.434076
1020.0, 0.469561
1026.0, 0.441908
1032.0, 0.402291
1038.0, 0.367654
1044.0, 0.315837
1050.0, 0.285639
1056.0, 0.314342
1062.0, 0.369062
1068.0, 0.401679
1074.0, 0.416775
1080.0, 0.418967
1086.0, 0.410036
1092.0, 0.409622
1098.0, 0.376934
1104.0, 0.348224
1110.0, 0.317876
1116.0, 0.264256
1122.0, 0.229686
1128.0, 0.181643
1134.0, 0.146685
1140.0, 0.125623
1146.0, 0.116113
1152.0, 0.103912
1158.0, 0.099665
1164.0, 0.0973961
1170.0, 0.0929969
1176.0, 0.103871
1182.0, 0.105075
1188.0, 0.110156
1194.0, 0.11181
1200.0, 0.107974
1206.0, 0.104892
1212.0, 0.103873
1218.0, 0.0949179
1224.0, 0.0879151
1230.0, 0.069238
1236.0, 0.051741
1242.0, 0.0404206
1248.0, 0.0310839
1254.0, 0.018651
1260.0, 0.013008
1266.0, 0.0046331
1272.0, 0.00104585
1278.0, 0.00440482
1284.0, 0.00767347
1290.0, 0.00413136
1296.0, 0.00259506
1302.0, 0.00942264
1308.0, 0.00884987
1314.0, 0.00608365
1320.0, 0.00732041
1326.0, 0.00490021
1332.0, 0.000598291
1338.0, 0.00252681
1344.0, 0.00382256
1350.0, 0.00347063
1356.0, 0.00798235
1362.0, 0.0116155
1368.0, 0.0149747
1374.0, 0.0134858
1380.0, 0.00941671
1386.0, 0.0119567
1392.0, 0.0185574
1398.0, 0.0193716
1404.0, 0.0267723
1410.0, 0.0297031
1416.0, 0.0260267
1422.0, 0.0261282
1428.0, 0.026906
1434.0, 0.0285416
1440.0, 0.0314462
1446.0, 0.0351583
1452.0, 0.0351285
1458.0, 0.0366196
1464.0, 0.0332798
1470.0, 0.0353334
1476.0, 0.0431766
1482.0, 0.043613
1488.0, 0.0297616
1494.0, 0.0183941
1500.0, 0.0170632
1506.0, 0.0185601
1512.0, 0.0164093
1518.0, 0.0189807
1524.0, 0.0127925
1530.0, 0.00881507
1536, 0.0
1542, 0.0
1548, 0.0
1554, 0.0
1560, 0.0
1566, 0.0
1572, 0.0
1578, 0.0
1584, 0.0
1590, 0.0
1596, 0.0
1599, 0.0

File: Cubiczirconia__R040142-3__Raman__514__90__ccw__Raman_Data_Processed__2848.txt
30, 0.0
36, 0.0
42, 0.0
48, 0.0
54, 0.0
60, 0.0
66, 0.0
72, 0.0
78, 0.0
84, 0.0
90, 0.0
96, 0.0
102, 0.0
108, 0.0
114, 0.0
120, 0.0
126, 0.0
132, 0.0
138, 0.0
144, 0.0
150, 0.0
156, 0.0
162, 0.0
168, 0.0
174, 0.0
180, 0.0
186, 0.0
192, 0.0
198, 0.0
204, 0.0
210, 0.0
216, 0.0
222, 0.0
228, 0.0
234, 0.0
240, 0.0
246, 0.0
252, 0.0
258, 0.0
264, 0.0
270, 0.0
276, 0.0
282, 0.0
288, 0.0
294, 0.0
300, 0.0
306, 0.0
312, 0.0
318, 0.0
324.0, 0.0227865
330.0, 0.00294685
336.0, 0.0216226
342.0, 0.0593502
348.0, 0.105606
354.0, 0.102294
360.0, 0.0668073
366.0, 0.08778
372.0, 0.12119
378.0, 0.15516
384.0, 0.154494
390.0, 0.17033
396.0, 0.174978
402.0, 0.151708
408.0, 0.128839
414.0, 0.10433
420.0, 0.0938455
426.0, 0.0688893
432.0, 0.0382664
438.0, 0.0277484
444.0, 0.0104131
450.0, 0.00421477
456.0, 0.00209011
462.0, 0.00215243
468.0, 0.00385917
474.0, 0.0128925
480.0, 0.0134807
486.0, 0.0253144
492.0, 0.0677648
498.0, 0.0464317
504.0, 0.0668483
510.0, 0.0830485
516.0, 0.0875188
522.0, 0.115343
528.0, 0.134938
534.0, 0.161481
540.0, 0.189339
546.0, 0.201257
552.0, 0.223417
558.0, 0.254856
564.0, 0.292531
570.0, 0.325711
576.0, 0.361489
582.0, 0.395556
588.0, 0.450028
594.0, 0.492386
600.0, 0.546425
606.0, 0.613032
612.0, 0.656721
618.0, 0.689914
624.0, 0.686427
630.0, 0.632487
636.0, 0.535205
642.0, 0.412516
648.0, 0.318092
654.0, 0.275038
660.0, 0.244449
666.0, 0.238144
672.0, 0.23256
678.0, 0.246659
684.0, 0.247326
690.0, 0.24327
696.0, 0.23914
702.0, 0.234314
708.0, 0.212547
714.0, 0.18417
720.0, 0.173596
726.0, 0.14494
732.0, 0.123202
738.0, 0.0993577
744.0, 0.080257
750.0, 0.0621808
756.0, 0.0490673
762.0, 0.0350895
768.0, 0.0157849
774.0, 0.00550179
780.0, 0.00160019
786.0, 0.00356511
792.0, 0.00470591
798.0, 0.0117928
804.0, 0.0121373
810.0, 0.0134167
816.0, 0.0101019
822.0, 0.0114791
828.0, 0.00542822
834.0, 0.00582039
840.0, 0.00308559
846.0, 0.00370449
852.0, 0.00646374
858.0, 0.00544153
864.0, 0.0144021
870.0, 0.00400595
876.0, 0.00718494
882.0, 0.0160747
888.0, 0.0212945
894.0, 0.0279381
900.0, 0.0366185
906.0, 0.0515384
912.0, 0.0578268
918.0, 0.079431
924.0, 0.0981485
930.0, 0.148488
936.0, 0.238352
942.0, 0.431883
948.0, 0.695822
954.0, 0.913134
960.0, 0.916079
966.0, 0.692191
972.0, 0.423732
978.0, 0.238438
984.0, 0.182504
990.0, 0.239118
996.0, 0.382324
1002.0, 0.575886
1008.0, 0.764753
1014.0, 0.919144
1020.0, 0.982644
1026.0, 0.915352
1032.0, 0.833428
1038.0, 0.760844
1044.0, 0.660296
1050.0, 0.600824
1056.0, 0.663579
1062.0, 0.768381
1068.0, 0.85043
1074.0, 0.877812
1080.0, 0.871927
1086.0, 0.858217
1092.0, 0.845065
1098.0, 0.792714
1104.0, 0.730812
1110.0, 0.665109
1116.0, 0.562065
1122.0, 0.488703
1128.0, 0.385149
1134.0, 0.319227
1140.0, 0.278049
1146.0, 0.266057
1152.0, 0.231295
1158.0, 0.215851
1164.0, 0.208947
1170.0, 0.206855
1176.0, 0.225566
1182.0, 0.226896
1188.0, 0.229962
1194.0, 0.236036
1200.0, 0.22987
1206.0, 0.226368
1212.0, 0.219255
1218.0, 0.198193
1224.0, 0.179618
1230.0, 0.147285
1236.0, 0.109621
1242.0, 0.0842549
1248.0, 0.0659517
1254.0, 0.0421119
1260.0, 0.0289565
1266.0, 0.0137592
1272.0, 0.00390334
1278.0, 0.00876745
1284.0, 0.0100483
1290.0, 0.00595691
1296.0, 0.0122486
1302.0, 0.0154032
1308.0, 0.0078345
1314.0, 0.012435
1320.0, 0.0172489
1326.0, 0.00195087
1332.0, 0.00864357
1338.0, 0.0044634
1344.0, 0.00447077
1350.0, 0.00606743
1356.0, 0.0176207
1362.0, 0.0185523
1368.0, 0.0248442
1374.0, 0.0263675
1380.0, 0.0151409
1386.0, 0.0186928
1392.0, 0.0282347
1398.0, 0.0392235
1404.0, 0.0548345
1410.0, 0.061519
1416.0, 0.0543256
1422.0, 0.0573083
1428.0, 0.0551256
1434.0, 0.061264
1440.0, 0.0572842
1446.0, 0.0682145
1452.0, 0.0636525
1458.0, 0.0692009
1464.0, 0.064966
1470.0, 0.065312
1476.0, 0.0847055
1482.0, 0.0664946
1488.0, 0.0524045
1494.0, 0.0416515
1500.0, 0.035201
1506.0, 0.0313895
1512.0, 0.0244082
1518.0, 0.034477
1524.0, 0.0256897
1530.0, 0.0156576
1536, 0.0
1542, 0.0
1548, 0.0
1554, 0.0
1560, 0.0
1566, 0.0
1572, 0.0
1578, 0.0
1584, 0.0
1590, 0.0
1596, 0.0
1599, 0.0

File: Cubiczirconia__X080012__Raman__532__0__unoriented__Raman_Data_Processed__31411.txt
30, 0.0
36, 0.0
42, 0.0
48, 0.0
54, 0.0
60, 0.0
66, 0.0
72, 0.0
78, 0.0
84, 0.0
90, 0.0
96, 0.0
102, 0.0
108, 0.0
114, 0.0
120, 0.0
126, 0.0
132, 0.0
138, 0.0
144, 0.0
150, 0.0
156, 0.0
162.0, 0.0180443
168.0, 0.0166052
174.0, 0.0119914
180.0, 0.0160905
186.0, 0.0438978
192.0, 0.0167726
198.0, 0.00477307
204.0, 0.00592403
210.0, 0.00730638
216.0, 0.00416396
222.0, 0.0363159
228.0, 0.0537337
234.0, 0.0770934
240.0, 0.0999939
246.0, 0.105922
252.0, 0.121346
258.0, 0.135709
264.0, 0.12639
270.0, 0.122626
276.0, 0.117224
282.0, 0.121132
288.0, 0.117555
294.0, 0.13062
300.0, 0.137992
306.0, 0.163605
312.0, 0.189056
318.0, 0.184556
324.0, 0.134698
330.0, 0.0708001
336.0, 0.0260826
342.0, 0.00620818
348.0, 0.000855087
354.0, 0.0240985
360.0, 0.0469011
366.0, 0.0702603
372.0, 0.0907759
378.0, 0.102598
384.0, 0.0936415
390.0, 0.074316
396.0, 0.0638986
402.0, 0.0472253
408.0, 0.0359196
414.0, 0.0399205
420.0, 0.0394311
426.0, 0.0429813
432.0, 0.036238
438.0, 0.0198692
444.0, 0.00687472
450.0, 0.00680992
456.0, 0.0148807
462.0, 0.00138191
468.0, 0.00748758
474.0, 0.0122402
480.0, 0.010195
486.0, 0.00367241
492.0, 0.00763832
498.0, 0.00896767
504.0, 0.0185157
510.0, 0.0271365
516.0, 0.0268372
522.0, 0.0513177
528.0, 0.086607
534.0, 0.128379
540.0, 0.176045
546.0, 0.217777
552.0, 0.257818
558.0, 0.300677
564.0, 0.348252
570.0, 0.403901
576.0, 0.471032
582.0, 0.553709
588.0, 0.648663
594.0, 0.740517
600.0, 0.850641
606.0, 0.952166
612.0, 0.999367
618.0, 0.931062
624.0, 0.765816
630.0, 0.526858
636.0, 0.283439
642.0, 0.113896
648.0, 0.0153966
654.0, 0.0162334
660.0, 0.0180348
666.0, 0.00625748
672.0, 0.0166854
678.0, 0.0368913
684.0, 0.0588061
690.0, 0.0765586
696.0, 0.0863701
702.0, 0.0910547
708.0, 0.0951307
714.0, 0.0808668
720.0, 0.0553497
726.0, 0.0318262
732.0, 0.0243768
738.0, 0.0156915
744.0, 0.0130311
750.0, 0.00822889
756.0, 0.00490849
762.0, 0.00367624
768.0, 0.0015672
774.0, 0.00331383
780.0, 0.00989908
786.0, 0.00332387
792.0, 0.00766688
798.0, 0.00464003
804.0, 0.00391369
810.0, 0.00319553
816.0, 0.00171398
822.0, 5.44235e-05
828.0, 0.00262954
834.0, 0.00130903
840.0, 0.00128911
846.0, 0.00213881
852.0, 0.00175387
858.0, 0.00131162
864.0, 0.00102325
870.0, 0.00339198
876.0, 0.000865373
882.0, 0.00214242
888.0, 0.00273907
894.0, 0.000434884
900.0, 0.00113509
906.0, 0.000692708
912.0, 0.00211282
918.0, 0.000362157
924.0, 0.00402591
930.0, 0.00950124
936.0, 0.00610923
942.0, 0.00721554
948.0, 0.0116866
954.0, 0.0167939
960.0, 0.0201052
966.0, 0.022982
972.0, 0.0216597
978.0, 0.0257039
984.0, 0.027992
990.0, 0.0261616
996.0, 0.0211761
1002.0, 0.0192328
1008.0, 0.0178406
1014.0, 0.0123919
1020.0, 0.0135349
1026.0, 0.00696082
1032.0, 0.0083016
1038.0, 0.006224
1044.0, 0.00457018
1050.0, 0.00195687
1056.0, 0.00242463
1062.0, 0.000247982
1068.0, 0.000666525
1074.0, 0.000649307
1080.0, 0.000319049
1086.0, 0.000262115
1092.0, 0.00143549
1098.0, 0.001731
1104.0, 0.000425429
1110.0, 0.000615372
1116.0, 0.000270701
1122.0, 0.00135167
1128.0, 0.00220861
1134.0, 0.00338253
1140.0, 0.00173098
1146.0, 0.00394711
1152.0, 0.00325367
1158.0, 0.0045587
1164.0, 0.00431619
1170.0, 0.00297412
1176.0, 0.0043071
1182.0, 0.0040914
1188.0, 0.00399499
1194.0, 0.00370261
1200.0, 0.00432071
1206.0, 0.00389338
1212.0, 0.00275834
1218.0, 0.00273097
1224.0, 0.00375912
1230.0, 0.00190367
1236.0, 0.00163934
1242.0, 0.00139468
1248.0, 0.00223679
1254.0, 0.00115568
1260.0, 0.00056241
1266.0, 0.0014818
1272.0, 0.000521765
1278.0, 0.0017692
1284.0, 0.000983914
1290.0, 0.00113318
1296.0, 0.000313686
1302.0, 0.000218305
1308, 0.0
1314, 0.0
1320, 0.0
1326, 0.0
1332, 0.0
1338, 0.0
1344, 0.0
1350, 0.0
1356, 0.0
1362, 0.0
1368, 0.0
1374, 0.0
1380, 0.0
1386, 0.0
1392, 0.0
1398, 0.0
1404, 0.0
1410, 0.0
1416, 0.0
1422, 0.0
1428, 0.0
1434, 0.0
1440, 0.0
1446, 0.0
1452, 0.0
1458, 0.0
1464, 0.0
1470, 0.0
1476, 0.0
1482, 0.0
1488, 0.0
1494, 0.0
1500, 0.0
1506, 0.0
1512, 0.0
1518, 0.0
1524, 0.0
1530, 0.0
1536, 0.0
1542, 0.0
1548, 0.0
1554, 0.0
1560, 0.0
1566, 0.0
1572, 0.0
1578, 0.0
1584, 0.0
1590, 0.0
1596, 0.0
1599, 0.0