Folder: 1D_CNN_For_Mineral_Classification/raw data/Dataset_2/Ferrohogbomite2N2S

File: Ferrohogbomite2N2S__R061017__Raman__532__0__unoriented__Raman_Data_Processed__14756.txt
30, 0.0
36, 0.0
42, 0.0
48, 0.0
54, 0.0
60, 0.0
66, 0.0
72, 0.0
78, 0.0
84, 0.0
90, 0.0
96, 0.0
102, 0.0
108, 0.0
114, 0.0
120, 0.0
126, 0.0
132, 0.0
138, 0.0
144, 0.0
150, 0.0
156, 0.0
162.0, 0.0379422
168.0, 0.00116787
174.0, 0.0196278
180.0, 0.0109042
186.0, 0.04438
192.0, 0.0318565
198.0, 0.044156
204.0, 0.060434
210.0, 0.0217204
216.0, 0.00250362
222.0, 0.00309572
228.0, 0.00741252
234.0, 0.00550351
240.0, 0.0046671
246.0, 0.0128147
252.0, 0.00970534
258.0, 0.00220369
264.0, 0.0162904
270.0, 0.0253564
276.0, 0.0374356
282.0, 0.0547837
288.0, 0.072815
294.0, 0.0806441
300.0, 0.0956849
306.0, 0.10278
312.0, 0.109411
318.0, 0.0923229
324.0, 0.0485932
330.0, 0.0419332
336.0, 0.016534
342.0, 0.0129032
348.0, 0.0165842
354.0, 0.00440832
360.0, 0.00198682
366.0, 0.00270338
372.0, 0.0151894
378.0, 0.0161481
384.0, 0.0062852
390.0, 0.0696519
396.0, 0.0943087
402.0, 0.147495
408.0, 0.0941345
414.0, 0.0289418
420.0, 0.0319179
426.0, 0.017329
432.0, 0.019579
438.0, 0.00135732
444.0, 0.00512213
450.0, 0.00511855
456.0, 0.00762125
462.0, 0.00564168
468.0, 0.00170074
474.0, 0.00631365
480.0, 0.000966667
486.0, 0.0195304
492.0, 0.0152236
498.0, 0.0238342
504.0, 0.0374503
510.0, 0.0406479
516.0, 0.0994979
522.0, 0.12371
528.0, 0.187114
534.0, 0.247686
540.0, 0.263562
546.0, 0.251239
552.0, 0.206803
558.0, 0.130369
564.0, 0.106462
570.0, 0.0447615
576.0, 0.0109551
582.0, 0.00221487
588.0, 0.00344237
594.0, 0.00666917
600.0, 0.00314199
606.0, 0.0200705
612.0, 0.0377328
618.0, 0.0609626
624.0, 0.118685
630.0, 0.151836
636.0, 0.206756
642.0, 0.31814
648.0, 0.46258
654.0, 0.662002
660.0, 0.88152
666.0, 0.985364
672.0, 0.95023
678.0, 0.768651
684.0, 0.576822
690.0, 0.408937
696.0, 0.286732
702.0, 0.178636
708.0, 0.108258
714.0, 0.0692921
720.0, 0.0350209
726.0, 0.00670837
732.0, 0.00935817
738.0, 0.00364254
744.0, 0.00609013
750.0, 0.0205704
756.0, 0.0141556
762.0, 0.020169
768.0, 0.0236822
774.0, 0.0283838
780.0, 0.0138578
786.0, 0.0159317
792.0, 0.00264171
798.0, 0.0123001
804.0, 0.00737052
810.0, 0.00317732
816.0, 0.0159432
822.0, 0.0374167
828.0, 0.00856448
834.0, 0.0183133
840.0, 0.0185882
846.0, 0.0338978
852.0, 0.018889
858.0, 0.0228481
864.0, 0.019354
870.0, 0.00656779
876.0, 0.0189632
882.0, 0.0198954
888.0, 0.031989
894.0, 0.0267952
900.0, 0.0213271
906.0, 0.0164774
912.0, 0.0135428
918.0, 0.00516815
924.0, 0.0235845
930.0, 0.000956397
936.0, 0.00311398
942.0, 0.0118962
948.0, 0.0255365
954.0, 0.0109578
960.0, 0.00459596
966.0, 0.0210257
972.0, 0.0233276
978.0, 0.0134036
984.0, 0.015817
990.0, 0.00280192
996.0, 0.0110153
1002.0, 0.00214794
1008.0, 0.0045516
1014.0, 0.0180828
1020.0, 0.00629749
1026.0, 0.0155301
1032.0, 0.00763646
1038.0, 0.0225821
1044.0, 0.0209161
1050.0, 0.0214758
1056.0, 0.00688074
1062.0, 0.00675989
1068.0, 0.0119902
1074.0, 0.0203182
1080.0, 0.0132738
1086.0, 0.0168793
1092.0, 0.00245964
1098.0, 0.0113346
1104.0, 0.0142996
1110.0, 0.0168897
1116.0, 0.00650319
1122.0, 0.0097524
1128.0, 0.0173939
1134.0, 0.0173589
1140.0, 0.0186824
1146.0, 0.00684186
1152.0, 0.00502775
1158.0, 0.0121105
1164.0, 0.0146216
1170.0, 0.0134157
1176.0, 0.0146318
1182.0, 0.0154377
1188.0, 0.00251105
1194.0, 0.00530022
1200.0, 0.0195183
1206.0, 0.00936164
1212.0, 0.020404
1218.0, 0.0242713
1224.0, 0.0185994
1230.0, 0.00278705
1236.0, 0.0103587
1242.0, 0.0318223
1248.0, 0.011835
1254.0, 0.0260928
1260.0, 0.033661
1266.0, 0.0140098
1272.0, 0.0185589
1278.0, 0.00299943
1284, 0.0
1290, 0.0
1296, 0.0
1302, 0.0
1308, 0.0
1314, 0.0
1320, 0.0
1326, 0.0
1332, 0.0
1338, 0.0
1344, 0.0
1350, 0.0
1356, 0.0
1362, 0.0
1368, 0.0
1374, 0.0
1380, 0.0
1386, 0.0
1392, 0.0
1398, 0.0
1404, 0.0
1410, 0.0
1416, 0.0
1422, 0.0
1428, 0.0
1434, 0.0
1440, 0.0
1446, 0.0
1452, 0.0
1458, 0.0
1464, 0.0
1470, 0.0
1476, 0.0
1482, 0.0
1488, 0.0
1494, 0.0
1500, 0.0
1506, 0.0
1512, 0.0
1518, 0.0
1524, 0.0
1530, 0.0
1536, 0.0
1542, 0.0
1548, 0.0
1554, 0.0
1560, 0.0
1566, 0.0
1572, 0.0
1578, 0.0
1584, 0.0
1590, 0.0
1596, 0.0
1599, 0.0

File: Ferrohogbomite2N2S__R061017__Raman__785__0__unoriented__Raman_Data_Processed__19322.txt
30, 0.0
36, 0.0
42, 0.0
48, 0.0
54, 0.0
60, 0.0
66, 0.0
72, 0.0
78, 0.0
84, 0.0
90, 0.0
96, 0.0
102, 0.0
108, 0.0
114, 0.0
120, 0.0
126, 0.0
132, 0.0
138, 0.0
144, 0.0
150, 0.0
156, 0.0
162, 0.0
168, 0.0
174, 0.0
180.0, 0.00079593
186.0, 0.0155381
192.0, 0.0469996
198.0, 0.048621
204.0, 0.0359688
210.0, 0.00889373
216.0, 0.00044786
222.0, 0.00109865
228.0, 0.000877849
234.0, 0.00601982
240.0, 0.0213129
246.0, 0.0142624
252.0, 0.0297428
258.0, 0.0404931
264.0, 0.0460673
270.0, 0.0630088
276.0, 0.0479192
282.0, 0.0511255
288.0, 0.0686842
294.0, 0.105642
300.0, 0.131306
306.0, 0.139093
312.0, 0.119805
318.0, 0.0928555
324.0, 0.0605026
330.0, 0.0588875
336.0, 0.0265728
342.0, 0.0203517
348.0, 0.0208018
354.0, 0.00727927
360.0, 0.010186
366.0, 0.00504982
372.0, 0.00319893
378.0, 0.00451037
384.0, 0.00422101
390.0, 0.0108748
396.0, 0.0367176
402.0, 0.0635733
408.0, 0.0338097
414.0, 0.0137936
420.0, 0.0172851
426.0, 0.00075868
432.0, 0.000368113
438.0, 0.0160252
444.0, 0.00812688
450.0, 0.00218865
456.0, 0.0123717
462.0, 0.00938875
468.0, 0.0218496
474.0, 0.0143236
480.0, 0.0183826
486.0, 0.0120202
492.0, 0.0218534
498.0, 0.0220218
504.0, 0.0173791
510.0, 0.0270881
516.0, 0.034427
522.0, 0.0456402
528.0, 0.071464
534.0, 0.0488468
540.0, 0.0564571
546.0, 0.0555331
552.0, 0.0506614
558.0, 0.020801
564.0, 0.0123726
570.0, 0.00337159
576.0, 0.00383792
582.0, 0.0095748
588.0, 0.000594894
594.0, 0.00433669
600.0, 0.00237871
606.0, 0.00639193
612.0, 0.0416984
618.0, 0.0470115
624.0, 0.0665432
630.0, 0.0994947
636.0, 0.143423
642.0, 0.224244
648.0, 0.339941
654.0, 0.540917
660.0, 0.771631
666.0, 0.960146
672.0, 0.974187
678.0, 0.843646
684.0, 0.640585
690.0, 0.469832
696.0, 0.337271
702.0, 0.235116
708.0, 0.139534
714.0, 0.0874179
720.0, 0.0497073
726.0, 0.0150272
732.0, 0.00796491
738.0, 0.00772945
744.0, 0.00447029
750.0, 0.00257845
756.0, 0.00938327
762.0, 0.00671502
768.0, 0.019444
774.0, 0.00175405
780.0, 0.00661728
786.0, 0.00568745
792.0, 0.00988097
798.0, 0.009269
804.0, 0.0123943
810.0, 0.0211398
816.0, 0.00909515
822.0, 0.0245935
828.0, 0.0129647
834.0, 0.0105498
840.0, 0.0093267
846.0, 0.0142109
852.0, 0.0098232
858.0, 0.0165267
864.0, 0.0189155
870.0, 0.00546912
876.0, 0.00511861
882.0, 0.00489327
888.0, 0.00565444
894.0, 0.0170653
900.0, 0.00686469
906.0, 0.0288463
912.0, 0.0227003
918.0, 0.0207721
924.0, 0.0194849
930.0, 0.0208331
936.0, 0.0325873
942.0, 0.0289618
948.0, 0.0268471
954.0, 0.0350623
960.0, 0.0287788
966.0, 0.0315259
972.0, 0.0230066
978.0, 0.0311812
984.0, 0.0232738
990.0, 0.0159111
996.0, 0.0186446
1002.0, 0.0146505
1008.0, 0.0225397
1014.0, 0.0313466
1020.0, 0.0135221
1026.0, 0.0192224
1032.0, 0.00799613
1038.0, 0.0230212
1044.0, 0.0206135
1050.0, 0.0230058
1056.0, 0.0122059
1062.0, 0.0127634
1068.0, 0.0177821
1074.0, 0.00625142
1080.0, 0.0252248
1086.0, 0.00588496
1092.0, 0.0176046
1098.0, 0.0265161
1104.0, 0.0216006
1110.0, 0.0300278
1116.0, 0.0158662
1122.0, 0.00639006
1128.0, 0.0228587
1134.0, 0.0122941
1140.0, 0.00505566
1146.0, 0.0213116
1152.0, 0.00493027
1158.0, 0.0143555
1164.0, 0.00933458
1170.0, 0.031596
1176.0, 0.0168756
1182.0, 0.0122259
1188.0, 0.00867085
1194.0, 0.01437
1200.0, 0.00600916
1206.0, 0.00663144
1212.0, 0.00962433
1218.0, 0.0163036
1224.0, 0.0281341
1230.0, 0.0147878
1236.0, 0.0220296
1242.0, 0.0352663
1248.0, 0.0354355
1254.0, 0.023213
1260.0, 0.0150459
1266.0, 0.0372305
1272, 0.0
1278, 0.0
1284, 0.0
1290, 0.0
1296, 0.0
1302, 0.0
1308, 0.0
1314, 0.0
1320, 0.0
1326, 0.0
1332, 0.0
1338, 0.0
1344, 0.0
1350, 0.0
1356, 0.0
1362, 0.0
1368, 0.0
1374, 0.0
1380, 0.0
1386, 0.0
1392, 0.0
1398, 0.0
1404, 0.0
1410, 0.0
1416, 0.0
1422, 0.0
1428, 0.0
1434, 0.0
1440, 0.0
1446, 0.0
1452, 0.0
1458, 0.0
1464, 0.0
1470, 0.0
1476, 0.0
1482, 0.0
1488, 0.0
1494, 0.0
1500, 0.0
1506, 0.0
1512, 0.0
1518, 0.0
1524, 0.0
1530, 0.0
1536, 0.0
1542, 0.0
1548, 0.0
1554, 0.0
1560, 0.0
1566, 0.0
1572, 0.0
1578, 0.0
1584, 0.0
1590, 0.0
1596, 0.0
1599, 0.0

File: Ferrohogbomite2N2S__R070156__Raman__532__0__unoriented__Raman_Data_Processed__19307.txt
30, 0.0
36, 0.0
42, 0.0
48, 0.0
54, 0.0
60, 0.0
66, 0.0
72, 0.0
78, 0.0
84, 0.0
90, 0.0
96, 0.0
102, 0.0
108, 0.0
114, 0.0
120, 0.0
126, 0.0
132, 0.0
138.0, 0.00548302
144.0, 0.0011217
150.0, 0.0427452
156.0, 0.0637974
162.0, 0.0554518
168.0, 0.0213719
174.0, 0.0463234
180.0, 0.0632927
186.0, 0.0787492
192.0, 0.0894071
198.0, 0.0780823
204.0, 0.0358321
210.0, 0.0372859
216.0, 0.0195505
222.0, 0.000972009
228.0, 0.00767512
234.0, 0.00459005
240.0, 0.00253453
246.0, 0.00545836
252.0, 0.0151857
258.0, 0.0397472
264.0, 0.0145006
270.0, 0.0119715
276.0, 0.0375817
282.0, 0.0825229
288.0, 0.0612253
294.0, 0.0776117
300.0, 0.102655
306.0, 0.128463
312.0, 0.11219
318.0, 0.112438
324.0, 0.0679017
330.0, 0.0564578
336.0, 0.0262872
342.0, 0.0421585
348.0, 0.00952619
354.0, 0.0300923
360.0, 0.00350408
366.0, 0.00962099
372.0, 0.0318962
378.0, 0.0353893
384.0, 0.0530878
390.0, 0.0860084
396.0, 0.151575
402.0, 0.174493
408.0, 0.113209
414.0, 0.0450835
420.0, 0.0385768
426.0, 0.00745711
432.0, 0.013022
438.0, 0.00207056
444.0, 0.0196821
450.0, 0.0223144
456.0, 0.0236481
462.0, 0.024578
468.0, 0.00504665
474.0, 0.0246914
480.0, 0.0111407
486.0, 0.0143708
492.0, 0.0115512
498.0, 0.040367
504.0, 0.0521395
510.0, 0.0468627
516.0, 0.0649868
522.0, 0.113715
528.0, 0.188537
534.0, 0.222873
540.0, 0.237336
546.0, 0.245924
552.0, 0.217566
558.0, 0.165399
564.0, 0.0857648
570.0, 0.0563752
576.0, 0.0383561
582.0, 0.0261179
588.0, 0.00705992
594.0, 0.00487907
600.0, 0.0132192
606.0, 0.0228905
612.0, 0.00649253
618.0, 0.0692315
624.0, 0.051465
630.0, 0.113464
636.0, 0.158793
642.0, 0.299013
648.0, 0.393122
654.0, 0.592511
660.0, 0.788496
666.0, 0.949399
672.0, 0.946683
678.0, 0.807852
684.0, 0.59369
690.0, 0.415025
696.0, 0.287015
702.0, 0.17342
708.0, 0.105493
714.0, 0.0547347
720.0, 0.0142221
726.0, 0.00566806
732.0, 0.00480028
738.0, 0.0044869
744.0, 0.0107768
750.0, 0.0268509
756.0, 0.0456682
762.0, 0.0281853
768.0, 0.0391729
774.0, 0.00933336
780.0, 0.01783
786.0, 0.0309943
792.0, 0.0136585
798.0, 0.0351546
804.0, 0.0349993
810.0, 0.0277555
816.0, 0.0140913
822.0, 0.0146871
828.0, 0.0233118
834.0, 0.03997
840.0, 0.0364297
846.0, 0.039963
852.0, 0.00923465
858.0, 0.0362955
864.0, 0.0063926
870.0, 0.0306663
876.0, 0.0129258
882.0, 0.0522676
888.0, 0.0168997
894.0, 0.0279082
900.0, 0.0191183
906.0, 0.021909
912.0, 0.0454509
918.0, 0.0271328
924.0, 0.0165071
930.0, 0.0227677
936.0, 0.0211977
942.0, 0.0198778
948.0, 0.0147706
954.0, 0.00575484
960.0, 0.0179357
966.0, 0.0261483
972.0, 0.0422995
978.0, 0.0428862
984.0, 0.0432808
990.0, 0.0209296
996.0, 0.0249666
1002.0, 0.031517
1008.0, 0.00756915
1014.0, 0.0372041
1020.0, 0.0381936
1026.0, 0.00418583
1032.0, 0.03619
1038.0, 0.0376613
1044.0, 0.0433849
1050.0, 0.0063033
1056.0, 0.0143143
1062.0, 0.0115974
1068.0, 0.0309914
1074.0, 0.0162523
1080.0, 0.0144746
1086.0, 0.026026
1092.0, 0.0416931
1098.0, 0.0185489
1104.0, 0.0169193
1110.0, 0.026267
1116.0, 0.0271493
1122.0, 0.0167704
1128.0, 0.00582903
1134.0, 0.0107027
1140.0, 0.0185916
1146.0, 0.043383
1152.0, 0.0264108
1158.0, 0.0365468
1164.0, 0.00575589
1170.0, 0.00682125
1176.0, 0.0205002
1182.0, 0.0163616
1188.0, 0.0314606
1194.0, 0.0393605
1200.0, 0.0316725
1206.0, 0.0175799
1212.0, 0.0278328
1218.0, 0.036043
1224.0, 0.0375409
1230.0, 0.00778239
1236.0, 0.0281874
1242.0, 0.0255038
1248.0, 0.0191797
1254.0, 0.0205558
1260.0, 0.0218146
1266.0, 0.0327553
1272.0, 0.0201746
1278, 0.0
1284, 0.0
1290, 0.0
1296, 0.0
1302, 0.0
1308, 0.0
1314, 0.0
1320, 0.0
1326, 0.0
1332, 0.0
1338, 0.0
1344, 0.0
1350, 0.0
1356, 0.0
1362, 0.0
1368, 0.0
1374, 0.0
1380, 0.0
1386, 0.0
1392, 0.0
1398, 0.0
1404, 0.0
1410, 0.0
1416, 0.0
1422, 0.0
1428, 0.0
1434, 0.0
1440, 0.0
1446, 0.0
1452, 0.0
1458, 0.0
1464, 0.0
1470, 0.0
1476, 0.0
1482, 0.0
1488, 0.0
1494, 0.0
1500, 0.0
1506, 0.0
1512, 0.0
1518, 0.0
1524, 0.0
1530, 0.0
1536, 0.0
1542, 0.0
1548, 0.0
1554, 0.0
1560, 0.0
1566, 0.0
1572, 0.0
1578, 0.0
1584, 0.0
1590, 0.0
1596, 0.0
1599, 0.0

File: Ferrohogbomite2N2S__R070156__Raman__785__0__unoriented__Raman_Data_Processed__19309.txt
30, 0.0
36, 0.0
42, 0.0
48, 0.0
54, 0.0
60, 0.0
66, 0.0
72, 0.0
78, 0.0
84, 0.0
90, 0.0
96, 0.0
102, 0.0
108, 0.0
114, 0.0
120, 0.0
126, 0.0
132, 0.0
138, 0.0
144, 0.0
150.0, 0.0245137
156.0, 0.010057
162.0, 0.0362032
168.0, 0.0631167
174.0, 0.0607939
180.0, 0.0684606
186.0, 0.087133
192.0, 0.0700311
198.0, 0.0715187
204.0, 0.0297892
210.0, 0.0200717
216.0, 0.0125546
222.0, 0.0147646
228.0, 0.00474459
234.0, 0.00116685
240.0, 0.0169903
246.0, 0.00114348
252.0, 0.00369227
258.0, 0.00807391
264.0, 0.01626
270.0, 0.0215336
276.0, 0.0389869
282.0, 0.053707
288.0, 0.0708991
294.0, 0.0935593
300.0, 0.114411
306.0, 0.0966677
312.0, 0.10758
318.0, 0.0859823
324.0, 0.0666296
330.0, 0.0443528
336.0, 0.0377487
342.0, 0.0155238
348.0, 0.0271711
354.0, 0.0159065
360.0, 0.00419392
366.0, 0.0107655
372.0, 0.0031841
378.0, 0.0163343
384.0, 0.02416
390.0, 0.0113058
396.0, 0.0535099
402.0, 0.0592271
408.0, 0.0299684
414.0, 0.0253971
420.0, 0.0154919
426.0, 0.0184973
432.0, 0.00124233
438.0, 0.00700481
444.0, 0.00958936
450.0, 0.00851742
456.0, 0.0124615
462.0, 0.00219497
468.0, 0.0139535
474.0, 0.00142741
480.0, 0.00885932
486.0, 0.0199919
492.0, 0.00531278
498.0, 0.0112829
504.0, 0.0203498
510.0, 0.0330934
516.0, 0.0342896
522.0, 0.046011
528.0, 0.0589294
534.0, 0.0625829
540.0, 0.0513463
546.0, 0.0491176
552.0, 0.0430258
558.0, 0.00779748
564.0, 0.0158542
570.0, 0.00279168
576.0, 0.00894955
582.0, 0.00276393
588.0, 0.0145559
594.0, 0.00365589
600.0, 0.0118245
606.0, 0.0110723
612.0, 0.0310458
618.0, 0.048683
624.0, 0.0775025
630.0, 0.0907893
636.0, 0.139086
642.0, 0.232609
648.0, 0.35814
654.0, 0.562586
660.0, 0.773872
666.0, 0.944917
672.0, 0.964898
678.0, 0.816336
684.0, 0.637766
690.0, 0.455718
696.0, 0.333232
702.0, 0.236447
708.0, 0.139473
714.0, 0.084109
720.0, 0.0314551
726.0, 0.00225843
732.0, 0.00106285
738.0, 0.00770289
744.0, 0.00119771
750.0, 0.00210633
756.0, 0.0127371
762.0, 0.00724077
768.0, 0.0035693
774.0, 0.00697561
780.0, 0.0123231
786.0, 0.00685402
792.0, 0.0103904
798.0, 0.0117675
804.0, 0.00903665
810.0, 0.0185504
816.0, 0.0165733
822.0, 0.0217424
828.0, 0.00674242
834.0, 0.0219048
840.0, 0.0240642
846.0, 0.0148093
852.0, 0.0225778
858.0, 0.00782952
864.0, 0.0113061
870.0, 0.0082415
876.0, 0.0183197
882.0, 0.0137734
888.0, 0.0230455
894.0, 0.0126269
900.0, 0.0171924
906.0, 0.0169969
912.0, 0.0112274
918.0, 0.0121927
924.0, 0.00392583
930.0, 0.0163273
936.0, 0.0132275
942.0, 0.0135708
948.0, 0.00262958
954.0, 0.00817419
960.0, 0.00518656
966.0, 0.0126341
972.0, 0.00441036
978.0, 0.00259379
984.0, 0.00934368
990.0, 0.0145671
996.0, 0.0129508
1002.0, 0.0113807
1008.0, 0.0120313
1014.0, 0.0063222
1020.0, 0.0104351
1026.0, 0.011284
1032.0, 0.0013598
1038.0, 0.00905599
1044.0, 0.013048
1050.0, 0.0148985
1056.0, 0.0176472
1062.0, 0.0101872
1068.0, 0.00568741
1074.0, 0.00657987
1080.0, 0.0176905
1086.0, 0.0111055
1092.0, 0.00468829
1098.0, 0.0025232
1104.0, 0.0198291
1110.0, 0.00601017
1116.0, 0.00341844
1122.0, 0.0162025
1128.0, 0.010572
1134.0, 0.0183528
1140.0, 0.0224204
1146.0, 0.0112972
1152.0, 0.019248
1158.0, 0.0119158
1164.0, 0.0105489
1170.0, 0.00685822
1176.0, 0.0159526
1182.0, 0.0205922
1188.0, 0.0137567
1194.0, 0.0171265
1200.0, 0.0137452
1206.0, 0.0144165
1212.0, 0.00565633
1218.0, 0.00219421
1224.0, 0.00448417
1230, 0.0
1236, 0.0
1242, 0.0
1248, 0.0
1254, 0.0
1260, 0.0
1266, 0.0
1272, 0.0
1278, 0.0
1284, 0.0
1290, 0.0
1296, 0.0
1302, 0.0
1308, 0.0
1314, 0.0
1320, 0.0
1326, 0.0
1332, 0.0
1338, 0.0
1344, 0.0
1350, 0.0
1356, 0.0
1362, 0.0
1368, 0.0
1374, 0.0
1380, 0.0
1386, 0.0
1392, 0.0
1398, 0.0
1404, 0.0
1410, 0.0
1416, 0.0
1422, 0.0
1428, 0.0
1434, 0.0
1440, 0.0
1446, 0.0
1452, 0.0
1458, 0.0
1464, 0.0
1470, 0.0
1476, 0.0
1482, 0.0
1488, 0.0
1494, 0.0
1500, 0.0
1506, 0.0
1512, 0.0
1518, 0.0
1524, 0.0
1530, 0.0
1536, 0.0
1542, 0.0
1548, 0.0
1554, 0.0
1560, 0.0
1566, 0.0
1572, 0.0
1578, 0.0
1584, 0.0
1590, 0.0
1596, 0.0
1599, 0.0