Folder: 1D_CNN_For_Mineral_Classification/raw data/Dataset_2/Ferroedenite

File: Ferroedenite__R060044__Raman__532__0__unoriented__Raman_Data_Processed__26889.txt
30, 0.0
36, 0.0
42, 0.0
48, 0.0
54, 0.0
60, 0.0
66, 0.0
72, 0.0
78, 0.0
84, 0.0
90, 0.0
96, 0.0
102, 0.0
108, 0.0
114, 0.0
120, 0.0
126, 0.0
132, 0.0
138, 0.0
144, 0.0
150, 0.0
156, 0.0
162, 0.0
168, 0.0
174, 0.0
180, 0.0
186.0, 0.00333814
192.0, 0.0619727
198.0, 0.155887
204.0, 0.284195
210.0, 0.372319
216.0, 0.429667
222.0, 0.473523
228.0, 0.31314
234.0, 0.154951
240.0, 0.106436
246.0, 0.0451836
252.0, 0.00907772
258.0, 0.00179182
264.0, 0.000260865
270.0, 0.0141025
276.0, 0.024191
282.0, 0.0242835
288.0, 0.0145965
294.0, 0.0548719
300.0, 0.0476128
306.0, 0.057128
312.0, 0.0661418
318.0, 0.0325601
324.0, 0.0284067
330.0, 0.0290028
336.0, 0.0521287
342.0, 0.120693
348.0, 0.16161
354.0, 0.203972
360.0, 0.208167
366.0, 0.187971
372.0, 0.156272
378.0, 0.121638
384.0, 0.0391155
390.0, 0.0524381
396.0, 0.0157104
402.0, 0.00776741
408.0, 0.00827246
414.0, 0.0471432
420.0, 0.104074
426.0, 0.12812
432.0, 0.171877
438.0, 0.107387
444.0, 0.0809183
450.0, 0.0335805
456.0, 0.045642
462.0, 0.00919301
468.0, 0.0194297
474.0, 0.0183717
480.0, 0.0401755
486.0, 0.0964576
492.0, 0.204991
498.0, 0.271003
504.0, 0.348908
510.0, 0.400031
516.0, 0.514236
522.0, 0.605283
528.0, 0.710808
534.0, 0.766319
540.0, 0.81692
546.0, 0.849902
552.0, 0.840185
558.0, 0.721483
564.0, 0.552131
570.0, 0.40561
576.0, 0.270257
582.0, 0.128723
588.0, 0.0204312
594.0, 0.00706582
600.0, 0.0255965
606.0, 0.00168981
612.0, 0.0125416
618.0, 0.0366887
624.0, 0.05463
630.0, 0.131245
636.0, 0.231579
642.0, 0.350253
648.0, 0.541938
654.0, 0.778403
660.0, 0.969717
666.0, 0.931053
672.0, 0.6303
678.0, 0.377931
684.0, 0.191829
690.0, 0.148302
696.0, 0.154094
702.0, 0.241727
708.0, 0.349466
714.0, 0.402703
720.0, 0.362541
726.0, 0.32052
732.0, 0.259672
738.0, 0.164506
744.0, 0.106596
750.0, 0.0212632
756.0, 0.0157096
762.0, 0.0024836
768.0, 0.0866341
774.0, 0.133793
780.0, 0.193028
786.0, 0.216425
792.0, 0.167032
798.0, 0.148614
804.0, 0.148388
810.0, 0.12937
816.0, 0.133433
822.0, 0.112604
828.0, 0.0854723
834.0, 0.0607055
840.0, 0.0431482
846.0, 0.0180729
852.0, 0.00705131
858.0, 0.0182464
864.0, 0.0147354
870.0, 0.0362476
876.0, 0.0508319
882.0, 0.107389
888.0, 0.135245
894.0, 0.159057
900.0, 0.140883
906.0, 0.0855198
912.0, 0.0961117
918.0, 0.0655434
924.0, 0.0588668
930.0, 0.0431995
936.0, 0.0373314
942.0, 0.0374501
948.0, 0.0316149
954.0, 0.0173198
960.0, 0.0362491
966.0, 0.00496987
972.0, 0.00341209
978.0, 0.00310527
984.0, 0.0229676
990.0, 0.052219
996.0, 0.0576843
1002.0, 0.105089
1008.0, 0.142773
1014.0, 0.160053
1020.0, 0.167219
1026.0, 0.218836
1032.0, 0.215753
1038.0, 0.220889
1044.0, 0.201141
1050.0, 0.209346
1056.0, 0.18706
1062.0, 0.141174
1068.0, 0.12776
1074.0, 0.103835
1080.0, 0.0983224
1086.0, 0.0656392
1092.0, 0.0528172
1098.0, 0.0369655
1104.0, 0.0334155
1110.0, 0.00699438
1116.0, 0.00640132
1122.0, 0.00234973
1128.0, 0.00201219
1134.0, 0.00347366
1140.0, 0.00151371
1146.0, 0.0333997
1152.0, 0.0237793
1158.0, 0.0436908
1164.0, 0.0283326
1170.0, 0.0545809
1176.0, 0.0610591
1182.0, 0.0454587
1188.0, 0.0386846
1194.0, 0.0351088
1200.0, 0.0389198
1206.0, 0.0432953
1212.0, 0.0502265
1218.0, 0.0475043
1224.0, 0.033005
1230.0, 0.0473911
1236.0, 0.0236381
1242.0, 0.022515
1248.0, 0.0194529
1254.0, 0.0282615
1260.0, 0.0255571
1266.0, 0.00283787
1272.0, 0.00735665
1278.0, 0.0181235
1284.0, 0.00413663
1290.0, 0.0307593
1296, 0.0
1302, 0.0
1308, 0.0
1314, 0.0
1320, 0.0
1326, 0.0
1332, 0.0
1338, 0.0
1344, 0.0
1350, 0.0
1356, 0.0
1362, 0.0
1368, 0.0
1374, 0.0
1380, 0.0
1386, 0.0
1392, 0.0
1398, 0.0
1404, 0.0
1410, 0.0
1416, 0.0
1422, 0.0
1428, 0.0
1434, 0.0
1440, 0.0
1446, 0.0
1452, 0.0
1458, 0.0
1464, 0.0
1470, 0.0
1476, 0.0
1482, 0.0
1488, 0.0
1494, 0.0
1500, 0.0
1506, 0.0
1512, 0.0
1518, 0.0
1524, 0.0
1530, 0.0
1536, 0.0
1542, 0.0
1548, 0.0
1554, 0.0
1560, 0.0
1566, 0.0
1572, 0.0
1578, 0.0
1584, 0.0
1590, 0.0
1596, 0.0
1599, 0.0

File: Ferroedenite__R060044__Raman__780__0__unoriented__Raman_Data_Processed__26887.txt
30, 0.0
36, 0.0
42, 0.0
48, 0.0
54, 0.0
60, 0.0
66, 0.0
72, 0.0
78, 0.0
84, 0.0
90, 0.0
96, 0.0
102, 0.0
108, 0.0
114, 0.0
120, 0.0
126, 0.0
132, 0.0
138, 0.0
144, 0.0
150, 0.0
156, 0.0
162, 0.0
168, 0.0
174, 0.0
180, 0.0
186.0, 0.0432465
192.0, 0.0244614
198.0, 0.133194
204.0, 0.258623
210.0, 0.365017
216.0, 0.448272
222.0, 0.494399
228.0, 0.410505
234.0, 0.306007
240.0, 0.239497
246.0, 0.108397
252.0, 0.0666022
258.0, 0.0204135
264.0, 0.0255168
270.0, 0.0516872
276.0, 0.0871946
282.0, 0.119396
288.0, 0.122587
294.0, 0.0818539
300.0, 0.0672608
306.0, 0.0776869
312.0, 0.032101
318.0, 0.0204899
324.0, 0.0122824
330.0, 0.0192445
336.0, 0.0219267
342.0, 0.0577033
348.0, 0.0673882
354.0, 0.0319001
360.0, 0.0735816
366.0, 0.13853
372.0, 0.125483
378.0, 0.0624825
384.0, 0.0700505
390.0, 0.0434964
396.0, 0.00462561
402.0, 0.0243718
408.0, 0.0243659
414.0, 0.0565608
420.0, 0.10943
426.0, 0.138671
432.0, 0.0922443
438.0, 0.038266
444.0, 0.0226566
450.0, 0.0394873
456.0, 0.0198289
462.0, 0.00684112
468.0, 0.0211458
474.0, 0.0199745
480.0, 0.0429312
486.0, 0.0582812
492.0, 0.164815
498.0, 0.20357
504.0, 0.270353
510.0, 0.301641
516.0, 0.392825
522.0, 0.415375
528.0, 0.448158
534.0, 0.442487
540.0, 0.405614
546.0, 0.333826
552.0, 0.287731
558.0, 0.248585
564.0, 0.203227
570.0, 0.121345
576.0, 0.0598402
582.0, 0.00086063
588.0, 0.0266204
594.0, 0.0149868
600.0, 0.0233855
606.0, 0.0347988
612.0, 0.0881402
618.0, 0.133971
624.0, 0.196206
630.0, 0.284516
636.0, 0.397462
642.0, 0.561668
648.0, 0.781105
654.0, 0.981601
660.0, 0.984708
666.0, 0.758433
672.0, 0.491867
678.0, 0.291232
684.0, 0.160662
690.0, 0.128439
696.0, 0.128312
702.0, 0.0782631
708.0, 0.0987493
714.0, 0.0864301
720.0, 0.0433752
726.0, 0.0390615
732.0, 0.0409474
738.0, 0.0215596
744.0, 0.0105043
750.0, 0.0211631
756.0, 0.0060771
762.0, 0.00821153
768.0, 0.0734582
774.0, 0.10609
780.0, 0.108909
786.0, 0.128552
792.0, 0.154434
798.0, 0.179483
804.0, 0.196711
810.0, 0.209324
816.0, 0.205664
822.0, 0.170817
828.0, 0.160685
834.0, 0.137217
840.0, 0.0692199
846.0, 0.0750065
852.0, 0.0503941
858.0, 0.0399194
864.0, 0.00599625
870.0, 0.0218955
876.0, 0.0114808
882.0, 0.00717512
888.0, 0.0458324
894.0, 0.0332917
900.0, 0.0383649
906.0, 0.0236546
912.0, 0.0407155
918.0, 0.0194262
924.0, 0.00737757
930.0, 0.00310519
936.0, 0.0219872
942.0, 0.0176708
948.0, 0.0419258
954.0, 0.0429597
960.0, 0.0152885
966.0, 0.0150914
972.0, 0.0178393
978.0, 0.0373879
984.0, 0.0519242
990.0, 0.0661452
996.0, 0.0857021
1002.0, 0.0965458
1008.0, 0.0734188
1014.0, 0.122303
1020.0, 0.166337
1026.0, 0.156068
1032.0, 0.150846
1038.0, 0.125903
1044.0, 0.116688
1050.0, 0.134913
1056.0, 0.104464
1062.0, 0.0875694
1068.0, 0.0793407
1074.0, 0.0375297
1080.0, 0.0152703
1086.0, 0.0210491
1092.0, 0.00402137
1098.0, 0.021862
1104.0, 0.0247069
1110.0, 0.022813
1116.0, 0.0126919
1122.0, 0.00120346
1128.0, 0.0107675
1134.0, 0.00511691
1140.0, 0.0215789
1146.0, 0.019507
1152.0, 0.0347399
1158.0, 0.0301211
1164.0, 0.0312174
1170.0, 0.0528669
1176.0, 0.0270527
1182.0, 0.0536828
1188.0, 0.0314401
1194.0, 0.0464474
1200.0, 0.0476203
1206.0, 0.0507106
1212.0, 0.0119348
1218.0, 0.0357201
1224.0, 0.0341079
1230.0, 0.0392564
1236.0, 0.0320284
1242.0, 0.0365141
1248.0, 0.011223
1254.0, 0.00814736
1260.0, 0.00710041
1266.0, 0.019601
1272.0, 0.0189266
1278.0, 0.000272348
1284, 0.0
1290, 0.0
1296, 0.0
1302, 0.0
1308, 0.0
1314, 0.0
1320, 0.0
1326, 0.0
1332, 0.0
1338, 0.0
1344, 0.0
1350, 0.0
1356, 0.0
1362, 0.0
1368, 0.0
1374, 0.0
1380, 0.0
1386, 0.0
1392, 0.0
1398, 0.0
1404, 0.0
1410, 0.0
1416, 0.0
1422, 0.0
1428, 0.0
1434, 0.0
1440, 0.0
1446, 0.0
1452, 0.0
1458, 0.0
1464, 0.0
1470, 0.0
1476, 0.0
1482, 0.0
1488, 0.0
1494, 0.0
1500, 0.0
1506, 0.0
1512, 0.0
1518, 0.0
1524, 0.0
1530, 0.0
1536, 0.0
1542, 0.0
1548, 0.0
1554, 0.0
1560, 0.0
1566, 0.0
1572, 0.0
1578, 0.0
1584, 0.0
1590, 0.0
1596, 0.0
1599, 0.0