Folder: 1D_CNN_For_Mineral_Classification/raw data/Dataset_2/Ferroholmquistite

File: Ferroholmquistite__R070005__Raman__532__0__unoriented__Raman_Data_Processed__16756.txt
30, 0.0
36, 0.0
42, 0.0
48, 0.0
54, 0.0
60, 0.0
66, 0.0
72, 0.0
78, 0.0
84, 0.0
90, 0.0
96, 0.0
102, 0.0
108, 0.0
114, 0.0
120, 0.0
126, 0.0
132, 0.0
138, 0.0
144, 0.0
150, 0.0
156, 0.0
162, 0.0
168, 0.0
174, 0.0
180.0, 0.115952
186.0, 0.368138
192.0, 0.444608
198.0, 0.143545
204.0, 0.0523321
210.0, 0.0256471
216.0, 0.0119923
222.0, 0.00691893
228.0, 0.00677431
234.0, 0.00350553
240.0, 0.0209289
246.0, 0.0382314
252.0, 0.0413922
258.0, 0.0431593
264.0, 0.0327
270.0, 0.0185556
276.0, 0.0136
282.0, 0.0133431
288.0, 0.0190712
294.0, 0.0280328
300.0, 0.024146
306.0, 0.0177663
312.0, 0.00446922
318.0, 0.00397139
324.0, 0.00527529
330.0, 0.0172351
336.0, 0.0494727
342.0, 0.0597879
348.0, 0.0478642
354.0, 0.0201398
360.0, 0.0138939
366.0, 0.0197484
372.0, 0.0676974
378.0, 0.16148
384.0, 0.265471
390.0, 0.213118
396.0, 0.117332
402.0, 0.0908679
408.0, 0.0758778
414.0, 0.0831959
420.0, 0.0942389
426.0, 0.0444259
432.0, 0.0019895
438.0, 0.000900557
444.0, 0.00884659
450.0, 0.0274016
456.0, 0.0310616
462.0, 0.0143857
468.0, 0.00865486
474.0, 0.00497562
480.0, 0.0109983
486.0, 0.00300721
492.0, 0.0142539
498.0, 0.0253059
504.0, 0.0111106
510.0, 0.00252574
516.0, 0.00183681
522.0, 0.0177757
528.0, 0.0405604
534.0, 0.0388501
540.0, 0.0417266
546.0, 0.0344763
552.0, 0.0439919
558.0, 0.0296664
564.0, 0.0205305
570.0, 0.0162934
576.0, 0.0256954
582.0, 0.0188393
588.0, 0.0223798
594.0, 0.035272
600.0, 0.0403881
606.0, 0.0767258
612.0, 0.0709001
618.0, 0.022686
624.0, 0.00463425
630.0, 0.00873839
636.0, 0.00828867
642.0, 0.0164949
648.0, 0.0407525
654.0, 0.086271
660.0, 0.205256
666.0, 0.510486
672.0, 0.897045
678.0, 0.863774
684.0, 0.366395
690.0, 0.179429
696.0, 0.114326
702.0, 0.0756327
708.0, 0.0458651
714.0, 0.0207841
720.0, 0.00122456
726.0, 0.00145059
732.0, 0.00541587
738.0, 0.0338892
744.0, 0.0718368
750.0, 0.0911794
756.0, 0.0338726
762.0, 0.0119617
768.0, 0.00382247
774.0, 0.00501954
780.0, 0.0282921
786.0, 0.039044
792.0, 0.0363287
798.0, 0.0112452
804.0, 0.0103294
810.0, 0.00692356
816.0, 0.000564741
822.0, 0.000765378
828.0, 0.000423481
834.0, 0.00284598
840.0, 0.0108825
846.0, 0.0162718
852.0, 0.018241
858.0, 0.0284111
864.0, 0.0214275
870.0, 0.0337171
876.0, 0.0339779
882.0, 0.0461978
888.0, 0.0484003
894.0, 0.0282006
900.0, 0.0168832
906.0, 0.0170612
912.0, 0.0131416
918.0, 0.0135486
924.0, 0.00555207
930.0, 0.00264419
936.0, 0.00596652
942.0, 0.00381133
948.0, 0.00711726
954.0, 0.00429171
960.0, 0.00266907
966.0, 0.00719513
972.0, 0.00644213
978.0, 0.00714737
984.0, 0.032533
990.0, 0.0771397
996.0, 0.0798222
1002.0, 0.0350091
1008.0, 0.0344583
1014.0, 0.0393177
1020.0, 0.0552665
1026.0, 0.0538206
1032.0, 0.0634971
1038.0, 0.0925738
1044.0, 0.100961
1050.0, 0.112345
1056.0, 0.148454
1062.0, 0.129715
1068.0, 0.047637
1074.0, 0.0152077
1080.0, 0.00460674
1086.0, 0.00291879
1092.0, 0.00160256
1098.0, 0.00495131
1104.0, 0.000965157
1110.0, 0.0143349
1116.0, 0.010217
1122.0, 0.040455
1128.0, 0.0531026
1134.0, 0.0135139
1140.0, 0.0166954
1146.0, 0.0131866
1152.0, 0.0333531
1158.0, 0.0147798
1164.0, 0.00784175
1170.0, 0.00766264
1176.0, 0.00372304
1182.0, 0.00278365
1188.0, 0.00481088
1194.0, 0.00271428
1200.0, 0.00169894
1206.0, 0.00863426
1212.0, 0.0102931
1218.0, 0.0129269
1224.0, 0.00306222
1230.0, 0.0170178
1236.0, 0.00274255
1242.0, 0.0132888
1248.0, 0.00225725
1254.0, 0.0093287
1260.0, 0.0136158
1266.0, 0.0191319
1272.0, 0.0103179
1278.0, 0.0210823
1284.0, 0.0253806
1290.0, 0.0177828
1296.0, 0.0217161
1302.0, 0.00226828
1308.0, 0.00660141
1314.0, 0.00172307
1320, 0.0
1326, 0.0
1332, 0.0
1338, 0.0
1344, 0.0
1350, 0.0
1356, 0.0
1362, 0.0
1368, 0.0
1374, 0.0
1380, 0.0
1386, 0.0
1392, 0.0
1398, 0.0
1404, 0.0
1410, 0.0
1416, 0.0
1422, 0.0
1428, 0.0
1434, 0.0
1440, 0.0
1446, 0.0
1452, 0.0
1458, 0.0
1464, 0.0
1470, 0.0
1476, 0.0
1482, 0.0
1488, 0.0
1494, 0.0
1500, 0.0
1506, 0.0
1512, 0.0
1518, 0.0
1524, 0.0
1530, 0.0
1536, 0.0
1542, 0.0
1548, 0.0
1554, 0.0
1560, 0.0
1566, 0.0
1572, 0.0
1578, 0.0
1584, 0.0
1590, 0.0
1596, 0.0
1599, 0.0

File: Ferroholmquistite__R070005__Raman__785__0__unoriented__Raman_Data_Processed__16760.txt
30, 0.0
36, 0.0
42, 0.0
48, 0.0
54, 0.0
60, 0.0
66, 0.0
72, 0.0
78, 0.0
84, 0.0
90, 0.0
96, 0.0
102, 0.0
108, 0.0
114, 0.0
120, 0.0
126, 0.0
132, 0.0
138, 0.0
144, 0.0
150, 0.0
156.0, 0.0101167
162.0, 0.0361232
168.0, 0.176741
174.0, 0.329908
180.0, 0.496419
186.0, 0.801878
192.0, 0.969032
198.0, 0.521958
204.0, 0.312098
210.0, 0.214797
216.0, 0.150394
222.0, 0.138486
228.0, 0.11647
234.0, 0.101693
240.0, 0.106768
246.0, 0.0977641
252.0, 0.0812016
258.0, 0.0613446
264.0, 0.0444197
270.0, 0.0321568
276.0, 0.00547716
282.0, 0.00638068
288.0, 0.0113553
294.0, 0.0235173
300.0, 0.00993039
306.0, 0.0158678
312.0, 0.00131578
318.0, 0.00444439
324.0, 0.00414513
330.0, 0.0135258
336.0, 0.0336849
342.0, 0.0554479
348.0, 0.0571076
354.0, 0.041255
360.0, 0.0325035
366.0, 0.0155728
372.0, 0.045477
378.0, 0.0827038
384.0, 0.149461
390.0, 0.127784
396.0, 0.0716598
402.0, 0.0461181
408.0, 0.0405581
414.0, 0.054721
420.0, 0.0829452
426.0, 0.0425018
432.0, 0.00635619
438.0, 0.00885134
444.0, 0.00145346
450.0, 0.0246389
456.0, 0.013015
462.0, 0.0179137
468.0, 0.0260438
474.0, 0.0087014
480.0, 0.00399733
486.0, 0.0145635
492.0, 0.0223468
498.0, 0.0223904
504.0, 0.00899617
510.0, 0.00116228
516.0, 0.0098851
522.0, 0.0136764
528.0, 0.01559
534.0, 0.0274824
540.0, 0.0327893
546.0, 0.043232
552.0, 0.0499315
558.0, 0.0458309
564.0, 0.0214886
570.0, 0.00744938
576.0, 0.0161749
582.0, 0.00939935
588.0, 0.00433893
594.0, 0.0039752
600.0, 0.0231245
606.0, 0.0354094
612.0, 0.0467216
618.0, 0.0124643
624.0, 0.00168136
630.0, 0.00596759
636.0, 0.00314466
642.0, 0.00893001
648.0, 0.0231597
654.0, 0.0469312
660.0, 0.110935
666.0, 0.290993
672.0, 0.617648
678.0, 0.661383
684.0, 0.273503
690.0, 0.134152
696.0, 0.101856
702.0, 0.0850186
708.0, 0.0662466
714.0, 0.0309729
720.0, 0.0277235
726.0, 0.0164074
732.0, 0.0116201
738.0, 0.0166093
744.0, 0.0297391
750.0, 0.0353
756.0, 0.0105185
762.0, 0.00201435
768.0, 0.00160325
774.0, 0.00520064
780.0, 0.009242
786.0, 0.0212731
792.0, 0.0276842
798.0, 0.0158612
804.0, 0.0143798
810.0, 0.00286878
816.0, 0.00698398
822.0, 0.00255007
828.0, 0.00518352
834.0, 0.00552722
840.0, 0.00833712
846.0, 0.00431234
852.0, 0.00840925
858.0, 0.00670134
864.0, 0.0137882
870.0, 0.0214658
876.0, 0.0246564
882.0, 0.0282631
888.0, 0.0391667
894.0, 0.0176005
900.0, 0.0176105
906.0, 0.0179505
912.0, 0.01104
918.0, 0.00896765
924.0, 0.00420851
930.0, 0.00276558
936.0, 0.0053018
942.0, 0.00283971
948.0, 0.00162895
954.0, 0.00508456
960.0, 0.00424849
966.0, 0.00596155
972.0, 0.00932431
978.0, 0.00518757
984.0, 0.0305374
990.0, 0.0443047
996.0, 0.0661574
1002.0, 0.0322256
1008.0, 0.0301432
1014.0, 0.0222288
1020.0, 0.0378044
1026.0, 0.0410204
1032.0, 0.0445874
1038.0, 0.0661409
1044.0, 0.0652419
1050.0, 0.0682413
1056.0, 0.103805
1062.0, 0.111988
1068.0, 0.0626077
1074.0, 0.0399306
1080.0, 0.0141842
1086.0, 0.00733612
1092.0, 0.00393124
1098.0, 0.00593906
1104.0, 0.00985387
1110.0, 0.00125173
1116.0, 0.0133284
1122.0, 0.012664
1128.0, 0.0174523
1134.0, 0.00634645
1140.0, 0.0100564
1146.0, 0.00608842
1152.0, 0.0139994
1158.0, 0.0101384
1164.0, 0.000804996
1170.0, 0.00705282
1176.0, 0.0013514
1182.0, 0.00515963
1188.0, 0.00246766
1194.0, 0.00579353
1200.0, 0.00707056
1206.0, 0.00941666
1212.0, 0.00231858
1218.0, 0.0133203
1224.0, 0.00781506
1230.0, 0.00686259
1236.0, 0.0101227
1242.0, 0.00213318
1248, 0.0
1254, 0.0
1260, 0.0
1266, 0.0
1272, 0.0
1278, 0.0
1284, 0.0
1290, 0.0
1296, 0.0
1302, 0.0
1308, 0.0
1314, 0.0
1320, 0.0
1326, 0.0
1332, 0.0
1338, 0.0
1344, 0.0
1350, 0.0
1356, 0.0
1362, 0.0
1368, 0.0
1374, 0.0
1380, 0.0
1386, 0.0
1392, 0.0
1398, 0.0
1404, 0.0
1410, 0.0
1416, 0.0
1422, 0.0
1428, 0.0
1434, 0.0
1440, 0.0
1446, 0.0
1452, 0.0
1458, 0.0
1464, 0.0
1470, 0.0
1476, 0.0
1482, 0.0
1488, 0.0
1494, 0.0
1500, 0.0
1506, 0.0
1512, 0.0
1518, 0.0
1524, 0.0
1530, 0.0
1536, 0.0
1542, 0.0
1548, 0.0
1554, 0.0
1560, 0.0
1566, 0.0
1572, 0.0
1578, 0.0
1584, 0.0
1590, 0.0
1596, 0.0
1599, 0.0