Folder: 1D_CNN_For_Mineral_Classification/raw data/Dataset_2/Ferrosilite

File: Ferrosilite__R070386__Raman__532__0__unoriented__Raman_Data_Processed__22223.txt
30, 0.0
36, 0.0
42, 0.0
48, 0.0
54, 0.0
60, 0.0
66, 0.0
72, 0.0
78, 0.0
84, 0.0
90, 0.0
96, 0.0
102, 0.0
108, 0.0
114, 0.0
120, 0.0
126, 0.0
132, 0.0
138, 0.0
144, 0.0
150, 0.0
156, 0.0
162, 0.0
168, 0.0
174, 0.0
180.0, 0.000331237
186.0, 0.0160625
192.0, 0.00859757
198.0, 0.002405
204.0, 0.0102674
210.0, 0.00600065
216.0, 0.00250698
222.0, 0.00882416
228.0, 0.0239241
234.0, 0.0286957
240.0, 0.0473607
246.0, 0.0625544
252.0, 0.0451175
258.0, 0.0289849
264.0, 0.00480815
270.0, 0.0068065
276.0, 0.00757852
282.0, 0.000561883
288.0, 0.0150854
294.0, 0.0491196
300.0, 0.114765
306.0, 0.217209
312.0, 0.269853
318.0, 0.254432
324.0, 0.245342
330.0, 0.212112
336.0, 0.135007
342.0, 0.116014
348.0, 0.141635
354.0, 0.165234
360.0, 0.134023
366.0, 0.0885759
372.0, 0.0685829
378.0, 0.0579053
384.0, 0.042366
390.0, 0.047735
396.0, 0.0487963
402.0, 0.0332338
408.0, 0.00292109
414.0, 0.00216753
420.0, 0.00140528
426.0, 0.00898449
432.0, 0.00646963
438.0, 0.00585778
444.0, 0.00708863
450.0, 0.0121387
456.0, 0.0174844
462.0, 0.00164401
468.0, 0.0190138
474.0, 0.0107039
480.0, 0.0109451
486.0, 0.00912549
492.0, 0.0133248
498.0, 0.0343185
504.0, 0.0462038
510.0, 0.0562401
516.0, 0.0775279
522.0, 0.110011
528.0, 0.088505
534.0, 0.0728024
540.0, 0.0554062
546.0, 0.0533152
552.0, 0.0488299
558.0, 0.0246781
564.0, 0.0115195
570.0, 0.0100815
576.0, 0.00632931
582.0, 0.00645175
588.0, 0.000460609
594.0, 0.00211801
600.0, 0.00270161
606.0, 0.0183902
612.0, 0.0259378
618.0, 0.0271506
624.0, 0.0541683
630.0, 0.117893
636.0, 0.178328
642.0, 0.220114
648.0, 0.279068
654.0, 0.511212
660.0, 0.685612
666.0, 0.473277
672.0, 0.207729
678.0, 0.0860933
684.0, 0.0342268
690.0, 0.0187705
696.0, 0.0134611
702.0, 0.0100571
708.0, 0.000880782
714.0, 0.00188824
720.0, 0.00418793
726.0, 0.0117548
732.0, 0.0184052
738.0, 0.019279
744.0, 0.0150844
750.0, 0.00837149
756.0, 0.00532356
762.0, 0.00584749
768.0, 0.00135555
774.0, 0.00596558
780.0, 0.00883867
786.0, 0.0116838
792.0, 0.0192871
798.0, 0.0286508
804.0, 0.020808
810.0, 0.024943
816.0, 0.0189737
822.0, 0.0232395
828.0, 0.012508
834.0, 0.0123075
840.0, 0.0100492
846.0, 0.00745524
852.0, 0.00251731
858.0, 0.00546877
864.0, 0.0021738
870.0, 0.00338636
876.0, 0.00327617
882.0, 0.0167864
888.0, 0.0219496
894.0, 0.0197463
900.0, 0.0120398
906.0, 0.0123228
912.0, 0.0215457
918.0, 0.0203243
924.0, 0.000793558
930.0, 0.00748097
936.0, 0.0189292
942.0, 0.0543678
948.0, 0.095154
954.0, 0.0854287
960.0, 0.0479782
966.0, 0.0669117
972.0, 0.12867
978.0, 0.295417
984.0, 0.649882
990.0, 0.996784
996.0, 0.754509
1002.0, 0.334775
1008.0, 0.146545
1014.0, 0.0652807
1020.0, 0.0306161
1026.0, 0.0187571
1032.0, 0.00250791
1038.0, 0.00451683
1044.0, 0.00480491
1050.0, 0.000835613
1056.0, 0.000195573
1062.0, 0.0122892
1068.0, 0.00505173
1074.0, 0.0104717
1080.0, 0.00764762
1086.0, 0.010679
1092.0, 0.0164417
1098.0, 0.0140712
1104.0, 0.0162585
1110.0, 0.00964682
1116.0, 0.00787475
1122.0, 0.000928906
1128.0, 0.00248978
1134.0, 0.00798416
1140.0, 0.0137433
1146.0, 0.00119882
1152.0, 0.0114053
1158.0, 0.0138741
1164.0, 0.00330027
1170.0, 0.00620677
1176.0, 0.0070356
1182.0, 0.0124124
1188.0, 0.00652009
1194.0, 0.0127453
1200.0, 0.00137977
1206.0, 0.00584997
1212.0, 0.00142519
1218.0, 0.0081307
1224.0, 0.0120677
1230.0, 0.00317403
1236.0, 0.00677795
1242.0, 0.0053753
1248.0, 0.0047915
1254.0, 0.00469126
1260.0, 0.0046795
1266.0, 0.0065243
1272.0, 0.00931697
1278.0, 0.0110911
1284.0, 0.00199389
1290, 0.0
1296, 0.0
1302, 0.0
1308, 0.0
1314, 0.0
1320, 0.0
1326, 0.0
1332, 0.0
1338, 0.0
1344, 0.0
1350, 0.0
1356, 0.0
1362, 0.0
1368, 0.0
1374, 0.0
1380, 0.0
1386, 0.0
1392, 0.0
1398, 0.0
1404, 0.0
1410, 0.0
1416, 0.0
1422, 0.0
1428, 0.0
1434, 0.0
1440, 0.0
1446, 0.0
1452, 0.0
1458, 0.0
1464, 0.0
1470, 0.0
1476, 0.0
1482, 0.0
1488, 0.0
1494, 0.0
1500, 0.0
1506, 0.0
1512, 0.0
1518, 0.0
1524, 0.0
1530, 0.0
1536, 0.0
1542, 0.0
1548, 0.0
1554, 0.0
1560, 0.0
1566, 0.0
1572, 0.0
1578, 0.0
1584, 0.0
1590, 0.0
1596, 0.0
1599, 0.0

File: Ferrosilite__R070387__Raman__532__0__unoriented__Raman_Data_Processed__22235.txt
30, 0.0
36, 0.0
42, 0.0
48, 0.0
54, 0.0
60, 0.0
66, 0.0
72, 0.0
78, 0.0
84, 0.0
90, 0.0
96, 0.0
102, 0.0
108, 0.0
114, 0.0
120, 0.0
126, 0.0
132, 0.0
138, 0.0
144, 0.0
150, 0.0
156, 0.0
162, 0.0
168, 0.0
174, 0.0
180, 0.0
186.0, 0.00606948
192.0, 0.00201108
198.0, 0.00634552
204.0, 0.0279682
210.0, 0.0545327
216.0, 0.0811325
222.0, 0.094577
228.0, 0.0883026
234.0, 0.0381586
240.0, 0.0139623
246.0, 0.00927801
252.0, 0.0100292
258.0, 0.0141089
264.0, 0.010363
270.0, 0.00103054
276.0, 0.00992266
282.0, 0.0246042
288.0, 0.0166728
294.0, 0.0177681
300.0, 0.0418698
306.0, 0.082123
312.0, 0.20465
318.0, 0.358818
324.0, 0.587749
330.0, 0.657389
336.0, 0.426881
342.0, 0.210684
348.0, 0.11799
354.0, 0.0744177
360.0, 0.0859264
366.0, 0.116818
372.0, 0.211355
378.0, 0.369798
384.0, 0.456261
390.0, 0.245193
396.0, 0.0705773
402.0, 0.0277371
408.0, 0.0312294
414.0, 0.0664807
420.0, 0.0667032
426.0, 0.00354932
432.0, 0.0117361
438.0, 0.00587832
444.0, 0.00367916
450.0, 0.0216221
456.0, 0.0171939
462.0, 0.00333457
468.0, 0.0057472
474.0, 0.00799163
480.0, 0.00285223
486.0, 0.0151651
492.0, 0.0131722
498.0, 0.0297574
504.0, 0.0638684
510.0, 0.120433
516.0, 0.134016
522.0, 0.137338
528.0, 0.18126
534.0, 0.174815
540.0, 0.141389
546.0, 0.0780731
552.0, 0.0570102
558.0, 0.0414096
564.0, 0.0244453
570.0, 0.0186116
576.0, 0.0205438
582.0, 0.0126524
588.0, 0.00695581
594.0, 0.00261725
600.0, 0.00429066
606.0, 0.00191796
612.0, 0.000635167
618.0, 0.0130467
624.0, 0.0171965
630.0, 0.0299106
636.0, 0.0522911
642.0, 0.145701
648.0, 0.268817
654.0, 0.363421
660.0, 0.351711
666.0, 0.49071
672.0, 0.537866
678.0, 0.250513
684.0, 0.104724
690.0, 0.0420406
696.0, 0.0281529
702.0, 0.0216457
708.0, 0.00257371
714.0, 0.00119818
720.0, 0.000834998
726.0, 0.0132683
732.0, 0.0206589
738.0, 0.028174
744.0, 0.0208661
750.0, 0.0176657
756.0, 0.00309493
762.0, 0.00224385
768.0, 0.00144025
774.0, 0.00300252
780.0, 0.0056675
786.0, 0.00686661
792.0, 0.0109196
798.0, 0.0173639
804.0, 0.0168486
810.0, 0.0220253
816.0, 0.0159655
822.0, 0.0257921
828.0, 0.0184268
834.0, 0.0135898
840.0, 0.010358
846.0, 0.00523016
852.0, 0.00130497
858.0, 0.000797916
864.0, 0.00134634
870.0, 0.00781562
876.0, 0.0213181
882.0, 0.0356973
888.0, 0.0384111
894.0, 0.0301452
900.0, 0.0103978
906.0, 0.0031654
912.0, 0.0017219
918.0, 0.00148908
924.0, 0.00199156
930.0, 0.0104819
936.0, 0.0372545
942.0, 0.0954803
948.0, 0.15921
954.0, 0.106019
960.0, 0.0235544
966.0, 0.00899282
972.0, 0.0284036
978.0, 0.0834487
984.0, 0.266839
990.0, 0.695144
996.0, 0.995544
1002.0, 0.633383
1008.0, 0.286406
1014.0, 0.135281
1020.0, 0.0727242
1026.0, 0.0536638
1032.0, 0.0359069
1038.0, 0.00654417
1044.0, 0.00695641
1050.0, 0.00451995
1056.0, 0.00732534
1062.0, 0.00268035
1068.0, 0.00264845
1074.0, 0.00623654
1080.0, 0.0117658
1086.0, 0.0102878
1092.0, 0.0177854
1098.0, 0.015903
1104.0, 0.0197125
1110.0, 0.0141719
1116.0, 0.0144715
1122.0, 0.00640909
1128.0, 0.00140502
1134.0, 0.0028153
1140.0, 0.00733157
1146.0, 0.00586742
1152.0, 0.0126423
1158.0, 0.0130521
1164.0, 0.000374003
1170.0, 0.00624897
1176.0, 0.00900292
1182.0, 0.00315984
1188.0, 0.00807153
1194.0, 0.00861108
1200.0, 0.00322578
1206.0, 0.00823723
1212.0, 0.000744693
1218.0, 0.00299639
1224.0, 0.0112893
1230.0, 0.00149278
1236.0, 0.00608571
1242.0, 0.00690435
1248.0, 0.00624379
1254.0, 0.00588017
1260.0, 0.0049832
1266.0, 0.00839179
1272.0, 0.00612647
1278.0, 0.00234622
1284.0, 0.000570527
1290.0, 0.00272849
1296.0, 0.00853564
1302, 0.0
1308, 0.0
1314, 0.0
1320, 0.0
1326, 0.0
1332, 0.0
1338, 0.0
1344, 0.0
1350, 0.0
1356, 0.0
1362, 0.0
1368, 0.0
1374, 0.0
1380, 0.0
1386, 0.0
1392, 0.0
1398, 0.0
1404, 0.0
1410, 0.0
1416, 0.0
1422, 0.0
1428, 0.0
1434, 0.0
1440, 0.0
1446, 0.0
1452, 0.0
1458, 0.0
1464, 0.0
1470, 0.0
1476, 0.0
1482, 0.0
1488, 0.0
1494, 0.0
1500, 0.0
1506, 0.0
1512, 0.0
1518, 0.0
1524, 0.0
1530, 0.0
1536, 0.0
1542, 0.0
1548, 0.0
1554, 0.0
1560, 0.0
1566, 0.0
1572, 0.0
1578, 0.0
1584, 0.0
1590, 0.0
1596, 0.0
1599, 0.0

File: Ferrosilite__R070387__Raman__785__0__unoriented__Raman_Data_Processed__22237.txt
30, 0.0
36, 0.0
42, 0.0
48, 0.0
54, 0.0
60, 0.0
66, 0.0
72, 0.0
78, 0.0
84, 0.0
90, 0.0
96, 0.0
102, 0.0
108, 0.0
114, 0.0
120, 0.0
126, 0.0
132, 0.0
138, 0.0
144, 0.0
150, 0.0
156, 0.0
162, 0.0
168, 0.0
174, 0.0
180, 0.0
186, 0.0
192, 0.0
198, 0.0
204.0, 0.00122253
210.0, 0.0629653
216.0, 0.109006
222.0, 0.142738
228.0, 0.0938752
234.0, 0.0561819
240.0, 0.0533802
246.0, 0.0165599
252.0, 0.0490183
258.0, 0.0202926
264.0, 0.000720113
270.0, 0.0189484
276.0, 0.0164442
282.0, 0.0432237
288.0, 0.0279289
294.0, 0.0275535
300.0, 0.0588828
306.0, 0.15552
312.0, 0.338623
318.0, 0.594983
324.0, 0.877584
330.0, 0.982909
336.0, 0.658898
342.0, 0.350201
348.0, 0.180409
354.0, 0.11089
360.0, 0.0807067
366.0, 0.0844476
372.0, 0.114836
378.0, 0.153229
384.0, 0.135659
390.0, 0.05234
396.0, 0.0151435
402.0, 0.00424876
408.0, 0.0218491
414.0, 0.0752161
420.0, 0.0985694
426.0, 0.0181629
432.0, 0.00294058
438.0, 0.00112378
444.0, 0.00644805
450.0, 0.0403133
456.0, 0.0124939
462.0, 0.00323715
468.0, 0.000904403
474.0, 0.00517372
480.0, 0.0174828
486.0, 0.00672572
492.0, 0.0286752
498.0, 0.0427165
504.0, 0.060491
510.0, 0.106922
516.0, 0.137079
522.0, 0.162726
528.0, 0.19584
534.0, 0.164692
540.0, 0.13936
546.0, 0.0970772
552.0, 0.0838639
558.0, 0.0802557
564.0, 0.0775649
570.0, 0.0554979
576.0, 0.0476092
582.0, 0.0440745
588.0, 0.0303069
594.0, 0.0102035
600.0, 0.00357561
606.0, 0.00241654
612.0, 0.0017794
618.0, 0.0123224
624.0, 0.0230002
630.0, 0.0519944
636.0, 0.12824
642.0, 0.244289
648.0, 0.486363
654.0, 0.66675
660.0, 0.630067
666.0, 0.85195
672.0, 0.914985
678.0, 0.454823
684.0, 0.176069
690.0, 0.084023
696.0, 0.0459598
702.0, 0.00974154
708.0, 0.00980831
714.0, 0.00142658
720.0, 0.000511369
726.0, 0.0190826
732.0, 0.00794527
738.0, 0.0175935
744.0, 0.0110072
750.0, 0.0108952
756.0, 0.00242472
762.0, 0.00743122
768.0, 0.0030233
774.0, 0.00238074
780.0, 0.00116442
786.0, 0.00547235
792.0, 0.0057123
798.0, 0.0088686
804.0, 0.022957
810.0, 0.0222388
816.0, 0.0216404
822.0, 0.0174618
828.0, 0.0223664
834.0, 0.0132779
840.0, 0.00465127
846.0, 0.00999596
852.0, 0.00175518
858.0, 0.0125444
864.0, 0.00267231
870.0, 0.0174616
876.0, 0.0369951
882.0, 0.0468066
888.0, 0.030614
894.0, 0.0331012
900.0, 0.0150097
906.0, 0.00998382
912.0, 0.00899282
918.0, 0.000829445
924.0, 0.0050733
930.0, 0.0100261
936.0, 0.0175134
942.0, 0.0406435
948.0, 0.0615101
954.0, 0.0494958
960.0, 0.0123595
966.0, 0.00475741
972.0, 0.0200468
978.0, 0.0562562
984.0, 0.179195
990.0, 0.42743
996.0, 0.576986
1002.0, 0.36994
1008.0, 0.18572
1014.0, 0.0943299
1020.0, 0.0384298
1026.0, 0.0285459
1032.0, 0.0245653
1038.0, 0.00135694
1044.0, 0.00551123
1050.0, 0.00448438
1056.0, 0.00673787
1062.0, 0.00462498
1068.0, 0.00493275
1074.0, 0.00832519
1080.0, 0.0192056
1086.0, 0.00319684
1092.0, 0.00984369
1098.0, 0.0126465
1104.0, 0.0129282
1110.0, 0.00931174
1116.0, 0.0150293
1122.0, 0.0091788
1128.0, 0.022951
1134.0, 0.0115758
1140.0, 0.0052648
1146.0, 0.0133378
1152.0, 0.00860703
1158.0, 0.00585807
1164.0, 0.0071502
1170.0, 0.001762
1176.0, 0.00488409
1182.0, 0.00813715
1188.0, 0.00911182
1194.0, 0.00140503
1200.0, 0.00728851
1206.0, 0.0111404
1212.0, 0.0109807
1218.0, 0.00185201
1224.0, 0.0085402
1230.0, 0.0196567
1236.0, 0.000952542
1242.0, 0.0133785
1248.0, 0.00242907
1254.0, 0.0159255
1260, 0.0
1266, 0.0
1272, 0.0
1278, 0.0
1284, 0.0
1290, 0.0
1296, 0.0
1302, 0.0
1308, 0.0
1314, 0.0
1320, 0.0
1326, 0.0
1332, 0.0
1338, 0.0
1344, 0.0
1350, 0.0
1356, 0.0
1362, 0.0
1368, 0.0
1374, 0.0
1380, 0.0
1386, 0.0
1392, 0.0
1398, 0.0
1404, 0.0
1410, 0.0
1416, 0.0
1422, 0.0
1428, 0.0
1434, 0.0
1440, 0.0
1446, 0.0
1452, 0.0
1458, 0.0
1464, 0.0
1470, 0.0
1476, 0.0
1482, 0.0
1488, 0.0
1494, 0.0
1500, 0.0
1506, 0.0
1512, 0.0
1518, 0.0
1524, 0.0
1530, 0.0
1536, 0.0
1542, 0.0
1548, 0.0
1554, 0.0
1560, 0.0
1566, 0.0
1572, 0.0
1578, 0.0
1584, 0.0
1590, 0.0
1596, 0.0
1599, 0.0