Folder: 1D_CNN_For_Mineral_Classification/raw data/Dataset_2/Ferrowodginite

File: Ferrowodginite__R120166__Raman__532__0__unoriented__Raman_Data_Processed__37253.txt
30, 0.0
36, 0.0
42, 0.0
48, 0.0
54, 0.0
60, 0.0
66, 0.0
72, 0.0
78, 0.0
84, 0.0
90, 0.0
96, 0.0
102, 0.0
108, 0.0
114, 0.0
120, 0.0
126, 0.0
132, 0.0
138, 0.0
144, 0.0
150, 0.0
156, 0.0
162, 0.0
168, 0.0
174, 0.0
180, 0.0
186, 0.0
192, 0.0
198.0, 0.00185397
204.0, 0.0124012
210.0, 0.0454453
216.0, 0.0924625
222.0, 0.0638981
228.0, 0.0774591
234.0, 0.0591303
240.0, 0.0660479
246.0, 0.0906689
252.0, 0.0988602
258.0, 0.114904
264.0, 0.159875
270.0, 0.297871
276.0, 0.495062
282.0, 0.747023
288.0, 0.837639
294.0, 0.66635
300.0, 0.476484
306.0, 0.334507
312.0, 0.22059
318.0, 0.129543
324.0, 0.045324
330.0, 0.0159886
336.0, 0.00888093
342.0, 0.0148782
348.0, 0.0131265
354.0, 0.00205435
360.0, 0.0421022
366.0, 0.0980612
372.0, 0.169057
378.0, 0.295418
384.0, 0.408045
390.0, 0.546322
396.0, 0.657998
402.0, 0.715619
408.0, 0.675482
414.0, 0.590016
420.0, 0.439984
426.0, 0.290703
432.0, 0.186221
438.0, 0.14715
444.0, 0.104422
450.0, 0.0750353
456.0, 0.0774383
462.0, 0.0899266
468.0, 0.0736413
474.0, 0.0958677
480.0, 0.136015
486.0, 0.136486
492.0, 0.162921
498.0, 0.146627
504.0, 0.161335
510.0, 0.137685
516.0, 0.100578
522.0, 0.0714906
528.0, 0.0150163
534.0, 0.00396528
540.0, 0.0148278
546.0, 0.0184651
552.0, 0.00768833
558.0, 0.0274566
564.0, 0.0481976
570.0, 0.0802157
576.0, 0.0912634
582.0, 0.119383
588.0, 0.120367
594.0, 0.124493
600.0, 0.106303
606.0, 0.110027
612.0, 0.105992
618.0, 0.124791
624.0, 0.125449
630.0, 0.143205
636.0, 0.143004
642.0, 0.126051
648.0, 0.136308
654.0, 0.143312
660.0, 0.123533
666.0, 0.124352
672.0, 0.107558
678.0, 0.0771924
684.0, 0.0665096
690.0, 0.0390723
696.0, 0.0166781
702.0, 0.00278441
708.0, 0.000496565
714.0, 0.0170802
720.0, 0.0123408
726.0, 0.0159481
732.0, 0.0233496
738.0, 0.0428432
744.0, 0.0576574
750.0, 0.0821899
756.0, 0.0919396
762.0, 0.0952765
768.0, 0.112658
774.0, 0.130175
780.0, 0.127867
786.0, 0.146443
792.0, 0.15884
798.0, 0.172629
804.0, 0.192372
810.0, 0.235631
816.0, 0.31128
822.0, 0.375017
828.0, 0.443084
834.0, 0.533129
840.0, 0.62916
846.0, 0.739623
852.0, 0.844084
858.0, 0.959931
864.0, 0.98526
870.0, 0.916471
876.0, 0.680893
882.0, 0.406424
888.0, 0.192567
894.0, 0.0575777
900.0, 0.00731246
906.0, 0.0230584
912.0, 0.00953998
918.0, 0.0110636
924.0, 0.00135886
930.0, 0.0143562
936.0, 0.0457296
942.0, 0.0377526
948.0, 0.0691727
954.0, 0.0741885
960.0, 0.0773294
966.0, 0.0806883
972.0, 0.0719488
978.0, 0.0486281
984.0, 0.047395
990.0, 0.0462873
996.0, 0.050138
1002.0, 0.0261424
1008.0, 0.0348295
1014.0, 0.0303849
1020.0, 0.0260608
1026.0, 0.0205607
1032.0, 0.0197227
1038.0, 0.00276652
1044.0, 0.0163117
1050.0, 0.00578819
1056.0, 0.00856597
1062.0, 0.00896709
1068.0, 0.00676164
1074.0, 0.00765639
1080.0, 0.010813
1086.0, 0.00691405
1092.0, 0.00262318
1098.0, 0.00526053
1104.0, 0.00880961
1110.0, 0.00830087
1116.0, 0.00137626
1122.0, 0.00347754
1128.0, 0.00217364
1134.0, 0.00528964
1140.0, 0.00969261
1146.0, 0.00074269
1152.0, 0.00995534
1158.0, 0.000340038
1164.0, 0.00756318
1170.0, 0.00643552
1176.0, 0.00790854
1182.0, 0.00421544
1188.0, 0.0121434
1194.0, 0.0167114
1200.0, 0.0029396
1206.0, 0.0179299
1212.0, 0.00790246
1218.0, 0.0123952
1224.0, 0.0213248
1230.0, 0.00931547
1236.0, 0.018868
1242.0, 0.0137035
1248.0, 0.0046425
1254.0, 0.000642451
1260.0, 0.00261746
1266.0, 0.0022103
1272.0, 0.00716739
1278.0, 0.0179666
1284.0, 0.012908
1290.0, 0.00571253
1296.0, 0.00732707
1302, 0.0
1308, 0.0
1314, 0.0
1320, 0.0
1326, 0.0
1332, 0.0
1338, 0.0
1344, 0.0
1350, 0.0
1356, 0.0
1362, 0.0
1368, 0.0
1374, 0.0
1380, 0.0
1386, 0.0
1392, 0.0
1398, 0.0
1404, 0.0
1410, 0.0
1416, 0.0
1422, 0.0
1428, 0.0
1434, 0.0
1440, 0.0
1446, 0.0
1452, 0.0
1458, 0.0
1464, 0.0
1470, 0.0
1476, 0.0
1482, 0.0
1488, 0.0
1494, 0.0
1500, 0.0
1506, 0.0
1512, 0.0
1518, 0.0
1524, 0.0
1530, 0.0
1536, 0.0
1542, 0.0
1548, 0.0
1554, 0.0
1560, 0.0
1566, 0.0
1572, 0.0
1578, 0.0
1584, 0.0
1590, 0.0
1596, 0.0
1599, 0.0

File: Ferrowodginite__R120166__Raman__780__0__unoriented__Raman_Data_Processed__37255.txt
30, 0.0
36, 0.0
42, 0.0
48, 0.0
54, 0.0
60, 0.0
66, 0.0
72, 0.0
78, 0.0
84, 0.0
90, 0.0
96, 0.0
102, 0.0
108, 0.0
114, 0.0
120, 0.0
126, 0.0
132, 0.0
138, 0.0
144, 0.0
150, 0.0
156, 0.0
162, 0.0
168, 0.0
174, 0.0
180, 0.0
186, 0.0
192.0, 0.0177512
198.0, 0.00398302
204.0, 0.0404487
210.0, 0.114592
216.0, 0.218581
222.0, 0.306561
228.0, 0.295103
234.0, 0.347171
240.0, 0.304433
246.0, 0.232552
252.0, 0.163084
258.0, 0.100971
264.0, 0.101508
270.0, 0.201513
276.0, 0.371422
282.0, 0.621864
288.0, 0.688625
294.0, 0.669379
300.0, 0.633671
306.0, 0.606847
312.0, 0.404572
318.0, 0.174207
324.0, 0.0438543
330.0, 0.0114063
336.0, 0.0144627
342.0, 0.0147676
348.0, 0.0111236
354.0, 0.0339334
360.0, 0.126217
366.0, 0.177063
372.0, 0.293959
378.0, 0.42218
384.0, 0.541221
390.0, 0.625307
396.0, 0.684517
402.0, 0.702264
408.0, 0.635836
414.0, 0.558117
420.0, 0.441267
426.0, 0.312766
432.0, 0.215405
438.0, 0.148802
444.0, 0.117157
450.0, 0.0779261
456.0, 0.0848675
462.0, 0.086823
468.0, 0.101173
474.0, 0.0968894
480.0, 0.124899
486.0, 0.109905
492.0, 0.117316
498.0, 0.0832509
504.0, 0.0586144
510.0, 0.0550443
516.0, 0.0135232
522.0, 0.0109219
528.0, 0.00171602
534.0, 0.0249323
540.0, 0.0115039
546.0, 0.00624129
552.0, 0.0601507
558.0, 0.109725
564.0, 0.153694
570.0, 0.174927
576.0, 0.197986
582.0, 0.21006
588.0, 0.225216
594.0, 0.174144
600.0, 0.162832
606.0, 0.200896
612.0, 0.195821
618.0, 0.236751
624.0, 0.268617
630.0, 0.274043
636.0, 0.306183
642.0, 0.327424
648.0, 0.310768
654.0, 0.302283
660.0, 0.273023
666.0, 0.223392
672.0, 0.185912
678.0, 0.128275
684.0, 0.0869942
690.0, 0.0299607
696.0, 0.00763483
702.0, 0.0272115
708.0, 0.029137
714.0, 0.0388995
720.0, 0.010572
726.0, 0.0573017
732.0, 0.087896
738.0, 0.12631
744.0, 0.162996
750.0, 0.172096
756.0, 0.179008
762.0, 0.184592
768.0, 0.187733
774.0, 0.207628
780.0, 0.188487
786.0, 0.181758
792.0, 0.222805
798.0, 0.201962
804.0, 0.216027
810.0, 0.257747
816.0, 0.320813
822.0, 0.399569
828.0, 0.478031
834.0, 0.546844
840.0, 0.627101
846.0, 0.753129
852.0, 0.89744
858.0, 0.977813
864.0, 0.961664
870.0, 0.808333
876.0, 0.544501
882.0, 0.285457
888.0, 0.101245
894.0, 0.0163078
900.0, 0.0106108
906.0, 0.0236799
912.0, 0.0146185
918.0, 0.0207034
924.0, 0.024031
930.0, 0.0549808
936.0, 0.0832912
942.0, 0.0906316
948.0, 0.120185
954.0, 0.131384
960.0, 0.140732
966.0, 0.125349
972.0, 0.0873716
978.0, 0.0820662
984.0, 0.0749534
990.0, 0.0614472
996.0, 0.0598197
1002.0, 0.0472311
1008.0, 0.0505523
1014.0, 0.0308586
1020.0, 0.0302819
1026.0, 0.0288104
1032.0, 0.0186296
1038.0, 0.0163859
1044.0, 0.0085662
1050.0, 0.00449866
1056.0, 0.0209711
1062.0, 0.0107876
1068.0, 0.0114169
1074.0, 0.00495434
1080.0, 0.00993832
1086.0, 0.00803325
1092.0, 0.0110986
1098.0, 0.00343219
1104.0, 0.00223577
1110.0, 0.00421858
1116.0, 0.00326908
1122.0, 0.00452221
1128.0, 0.0146032
1134.0, 0.00272741
1140.0, 0.00418486
1146.0, 0.0174365
1152.0, 0.0184567
1158.0, 0.0128637
1164.0, 0.0119626
1170.0, 0.0227987
1176.0, 0.0054389
1182.0, 0.012506
1188.0, 0.00967761
1194.0, 0.0158077
1200.0, 0.0229946
1206.0, 0.0151832
1212.0, 0.0114678
1218.0, 0.00703954
1224.0, 0.0204855
1230.0, 0.00654767
1236.0, 0.0158803
1242.0, 0.00113609
1248.0, 0.0145842
1254.0, 0.00235251
1260.0, 0.0188935
1266.0, 0.0127655
1272.0, 0.00729757
1278.0, 0.000409397
1284, 0.0
1290, 0.0
1296, 0.0
1302, 0.0
1308, 0.0
1314, 0.0
1320, 0.0
1326, 0.0
1332, 0.0
1338, 0.0
1344, 0.0
1350, 0.0
1356, 0.0
1362, 0.0
1368, 0.0
1374, 0.0
1380, 0.0
1386, 0.0
1392, 0.0
1398, 0.0
1404, 0.0
1410, 0.0
1416, 0.0
1422, 0.0
1428, 0.0
1434, 0.0
1440, 0.0
1446, 0.0
1452, 0.0
1458, 0.0
1464, 0.0
1470, 0.0
1476, 0.0
1482, 0.0
1488, 0.0
1494, 0.0
1500, 0.0
1506, 0.0
1512, 0.0
1518, 0.0
1524, 0.0
1530, 0.0
1536, 0.0
1542, 0.0
1548, 0.0
1554, 0.0
1560, 0.0
1566, 0.0
1572, 0.0
1578, 0.0
1584, 0.0
1590, 0.0
1596, 0.0
1599, 0.0