Folder: 1D_CNN_For_Mineral_Classification/raw data/Dataset_2/Ferroericssonite

File: Ferroericssonite__R070406__Raman__532__0__unoriented__Raman_Data_Processed__21617.txt
30, 0.0
36, 0.0
42, 0.0
48, 0.0
54, 0.0
60, 0.0
66, 0.0
72, 0.0
78, 0.0
84, 0.0
90, 0.0
96, 0.0
102, 0.0
108, 0.0
114, 0.0
120, 0.0
126, 0.0
132, 0.0
138, 0.0
144, 0.0
150.0, 0.000913467
156.0, 0.0229728
162.0, 0.00711403
168.0, 0.0267361
174.0, 0.0597514
180.0, 0.105752
186.0, 0.180113
192.0, 0.225438
198.0, 0.252927
204.0, 0.253846
210.0, 0.203841
216.0, 0.137095
222.0, 0.0945779
228.0, 0.0818078
234.0, 0.0690311
240.0, 0.0600174
246.0, 0.0287947
252.0, 0.0357041
258.0, 0.0340681
264.0, 0.0411321
270.0, 0.00841038
276.0, 0.00396623
282.0, 0.0085777
288.0, 0.0281221
294.0, 0.034621
300.0, 0.0315609
306.0, 0.0231896
312.0, 0.012365
318.0, 0.00183205
324.0, 0.0124316
330.0, 0.00248181
336.0, 0.0058629
342.0, 0.0174612
348.0, 0.0293991
354.0, 0.0764782
360.0, 0.0283222
366.0, 0.0532225
372.0, 0.0909927
378.0, 0.140507
384.0, 0.214298
390.0, 0.239279
396.0, 0.152757
402.0, 0.0603858
408.0, 0.00948789
414.0, 0.00385513
420.0, 0.00520205
426.0, 0.000690399
432.0, 0.00623757
438.0, 0.00723169
444.0, 0.0614337
450.0, 0.199922
456.0, 0.523359
462.0, 0.977133
468.0, 0.615218
474.0, 0.249024
480.0, 0.117347
486.0, 0.0812431
492.0, 0.0474819
498.0, 0.0315576
504.0, 0.0201562
510.0, 0.0341799
516.0, 0.0199769
522.0, 0.0162003
528.0, 0.0101599
534.0, 0.0135277
540.0, 0.0107247
546.0, 0.0201404
552.0, 0.0511926
558.0, 0.0805632
564.0, 0.119848
570.0, 0.143291
576.0, 0.0775692
582.0, 0.047489
588.0, 0.0188276
594.0, 0.00971874
600.0, 0.00750672
606.0, 0.00355783
612.0, 0.00786483
618.0, 0.00199939
624.0, 0.0153864
630.0, 0.0197873
636.0, 0.0701811
642.0, 0.138373
648.0, 0.242668
654.0, 0.418115
660.0, 0.487502
666.0, 0.368808
672.0, 0.197793
678.0, 0.120087
684.0, 0.0618407
690.0, 0.0263776
696.0, 0.0184858
702.0, 0.0130153
708.0, 0.0095938
714.0, 0.00700544
720.0, 0.00204904
726.0, 0.000971605
732.0, 0.0169805
738.0, 0.00919385
744.0, 0.0155128
750.0, 0.040678
756.0, 0.0332299
762.0, 0.0463251
768.0, 0.0386985
774.0, 0.0339862
780.0, 0.0295933
786.0, 0.0294909
792.0, 0.027879
798.0, 0.023891
804.0, 0.0339455
810.0, 0.0248402
816.0, 0.00465157
822.0, 0.00459146
828.0, 0.0163669
834.0, 0.00462214
840.0, 0.030363
846.0, 0.0107049
852.0, 0.026393
858.0, 0.0228195
864.0, 0.023882
870.0, 0.0385076
876.0, 0.147277
882.0, 0.321009
888.0, 0.685233
894.0, 0.891046
900.0, 0.445644
906.0, 0.152701
912.0, 0.0773877
918.0, 0.0718018
924.0, 0.0478186
930.0, 0.0829366
936.0, 0.0274071
942.0, 0.0186126
948.0, 0.000961822
954.0, 0.00588087
960.0, 0.0146328
966.0, 0.0234887
972.0, 0.0201079
978.0, 0.0287015
984.0, 0.056024
990.0, 0.0917439
996.0, 0.0908983
1002.0, 0.106328
1008.0, 0.0875869
1014.0, 0.0339144
1020.0, 0.0323763
1026.0, 0.0188419
1032.0, 0.00622864
1038.0, 0.00356582
1044.0, 0.0128036
1050.0, 0.0301548
1056.0, 0.0166764
1062.0, 0.0288234
1068.0, 0.0161455
1074.0, 0.0450429
1080.0, 0.048466
1086.0, 0.0312349
1092.0, 0.0195119
1098.0, 0.00644698
1104.0, 0.0183054
1110.0, 0.00340054
1116.0, 0.0259183
1122.0, 0.00790162
1128.0, 0.0118608
1134.0, 0.00610318
1140.0, 0.0044941
1146.0, 0.0132306
1152.0, 0.0267274
1158.0, 0.0490414
1164.0, 0.0280433
1170.0, 0.00646874
1176.0, 0.0097636
1182.0, 0.000999102
1188.0, 0.00989565
1194.0, 0.0124134
1200.0, 0.0236335
1206.0, 0.0227536
1212.0, 0.00933739
1218.0, 0.00569493
1224.0, 0.0110784
1230.0, 0.0143478
1236.0, 0.0185197
1242.0, 0.00827214
1248.0, 0.00728055
1254.0, 0.00728041
1260.0, 0.0103829
1266.0, 0.0114939
1272.0, 0.0134505
1278.0, 0.0240418
1284.0, 0.0170398
1290.0, 0.0118787
1296.0, 0.00990665
1302.0, 0.0143583
1308, 0.0
1314, 0.0
1320, 0.0
1326, 0.0
1332, 0.0
1338, 0.0
1344, 0.0
1350, 0.0
1356, 0.0
1362, 0.0
1368, 0.0
1374, 0.0
1380, 0.0
1386, 0.0
1392, 0.0
1398, 0.0
1404, 0.0
1410, 0.0
1416, 0.0
1422, 0.0
1428, 0.0
1434, 0.0
1440, 0.0
1446, 0.0
1452, 0.0
1458, 0.0
1464, 0.0
1470, 0.0
1476, 0.0
1482, 0.0
1488, 0.0
1494, 0.0
1500, 0.0
1506, 0.0
1512, 0.0
1518, 0.0
1524, 0.0
1530, 0.0
1536, 0.0
1542, 0.0
1548, 0.0
1554, 0.0
1560, 0.0
1566, 0.0
1572, 0.0
1578, 0.0
1584, 0.0
1590, 0.0
1596, 0.0
1599, 0.0

File: Ferroericssonite__R070406__Raman__785__0__unoriented__Raman_Data_Processed__21619.txt
30, 0.0
36, 0.0
42, 0.0
48, 0.0
54, 0.0
60, 0.0
66, 0.0
72, 0.0
78, 0.0
84, 0.0
90, 0.0
96, 0.0
102, 0.0
108, 0.0
114, 0.0
120, 0.0
126, 0.0
132, 0.0
138, 0.0
144, 0.0
150, 0.0
156, 0.0
162.0, 0.0241648
168.0, 0.00334708
174.0, 0.030526
180.0, 0.0578867
186.0, 0.119807
192.0, 0.182173
198.0, 0.181974
204.0, 0.181309
210.0, 0.13326
216.0, 0.102718
222.0, 0.0821361
228.0, 0.0760635
234.0, 0.101917
240.0, 0.0980698
246.0, 0.0564201
252.0, 0.0374001
258.0, 0.0212573
264.0, 0.0237098
270.0, 0.00158531
276.0, 0.00723552
282.0, 0.00877348
288.0, 0.0273697
294.0, 0.0405735
300.0, 0.0568742
306.0, 0.0550585
312.0, 0.0468586
318.0, 0.0221691
324.0, 0.0119594
330.0, 0.000972864
336.0, 0.000811565
342.0, 0.00061938
348.0, 0.0269084
354.0, 0.0680335
360.0, 0.0627524
366.0, 0.0733954
372.0, 0.101888
378.0, 0.147779
384.0, 0.206967
390.0, 0.280223
396.0, 0.22756
402.0, 0.103853
408.0, 0.0364311
414.0, 0.0207496
420.0, 0.020448
426.0, 0.0194246
432.0, 0.00330604
438.0, 0.00144324
444.0, 0.0314192
450.0, 0.131259
456.0, 0.308217
462.0, 0.690069
468.0, 0.531111
474.0, 0.251143
480.0, 0.13469
486.0, 0.066562
492.0, 0.0351746
498.0, 0.0206358
504.0, 0.0133228
510.0, 0.00795606
516.0, 0.00773819
522.0, 0.00512365
528.0, 0.00236282
534.0, 0.00431897
540.0, 0.00503281
546.0, 0.00710079
552.0, 0.00780973
558.0, 0.0288215
564.0, 0.0636484
570.0, 0.115486
576.0, 0.0667113
582.0, 0.0217801
588.0, 0.00719406
594.0, 0.00202348
600.0, 0.00239614
606.0, 0.00199357
612.0, 0.0177625
618.0, 0.0533595
624.0, 0.0978974
630.0, 0.152853
636.0, 0.177227
642.0, 0.256903
648.0, 0.370499
654.0, 0.665819
660.0, 0.967663
666.0, 0.849085
672.0, 0.496339
678.0, 0.266083
684.0, 0.131583
690.0, 0.0647617
696.0, 0.0396678
702.0, 0.0310287
708.0, 0.0255216
714.0, 0.00524478
720.0, 0.00229605
726.0, 0.00392752
732.0, 0.00254675
738.0, 0.000453374
744.0, 0.00077346
750.0, 0.00968914
756.0, 0.000813109
762.0, 0.00205087
768.0, 0.00561527
774.0, 0.009847
780.0, 0.0161443
786.0, 0.0144435
792.0, 0.0338172
798.0, 0.0332273
804.0, 0.0283644
810.0, 0.0295917
816.0, 0.0192734
822.0, 0.0196407
828.0, 0.0220852
834.0, 0.00080445
840.0, 0.00302012
846.0, 0.00523491
852.0, 0.00598683
858.0, 0.00309113
864.0, 0.00122142
870.0, 0.0156714
876.0, 0.0368401
882.0, 0.0769797
888.0, 0.22602
894.0, 0.451192
900.0, 0.294679
906.0, 0.106033
912.0, 0.063519
918.0, 0.0695413
924.0, 0.0833994
930.0, 0.138189
936.0, 0.102394
942.0, 0.0404786
948.0, 0.0353365
954.0, 0.00663519
960.0, 0.00504821
966.0, 0.00419531
972.0, 0.000674881
978.0, 0.00136148
984.0, 0.015353
990.0, 0.0224157
996.0, 0.0148143
1002.0, 0.0373925
1008.0, 0.0186355
1014.0, 0.0210577
1020.0, 0.0205139
1026.0, 0.0333179
1032.0, 0.00631235
1038.0, 0.00784727
1044.0, 0.00467593
1050.0, 0.0137717
1056.0, 0.0108513
1062.0, 0.00380737
1068.0, 0.000343245
1074.0, 0.0117974
1080.0, 0.0182632
1086.0, 0.00846223
1092.0, 0.00645814
1098.0, 0.0200961
1104.0, 0.015662
1110.0, 0.00610438
1116.0, 0.0198968
1122.0, 0.0306336
1128.0, 0.0272616
1134.0, 0.0300332
1140.0, 0.0162615
1146.0, 0.0161464
1152.0, 0.0100031
1158.0, 0.0177989
1164.0, 0.0136713
1170.0, 0.00518926
1176.0, 0.000402436
1182.0, 0.0182194
1188.0, 0.00617282
1194.0, 0.01585
1200.0, 0.00539083
1206.0, 0.0115603
1212.0, 0.00899743
1218.0, 0.00968035
1224.0, 0.000199733
1230, 0.0
1236, 0.0
1242, 0.0
1248, 0.0
1254, 0.0
1260, 0.0
1266, 0.0
1272, 0.0
1278, 0.0
1284, 0.0
1290, 0.0
1296, 0.0
1302, 0.0
1308, 0.0
1314, 0.0
1320, 0.0
1326, 0.0
1332, 0.0
1338, 0.0
1344, 0.0
1350, 0.0
1356, 0.0
1362, 0.0
1368, 0.0
1374, 0.0
1380, 0.0
1386, 0.0
1392, 0.0
1398, 0.0
1404, 0.0
1410, 0.0
1416, 0.0
1422, 0.0
1428, 0.0
1434, 0.0
1440, 0.0
1446, 0.0
1452, 0.0
1458, 0.0
1464, 0.0
1470, 0.0
1476, 0.0
1482, 0.0
1488, 0.0
1494, 0.0
1500, 0.0
1506, 0.0
1512, 0.0
1518, 0.0
1524, 0.0
1530, 0.0
1536, 0.0
1542, 0.0
1548, 0.0
1554, 0.0
1560, 0.0
1566, 0.0
1572, 0.0
1578, 0.0
1584, 0.0
1590, 0.0
1596, 0.0
1599, 0.0