Folder: 1D_CNN_For_Mineral_Classification/raw data/Dataset_2/Ferroactinolite

File: Ferroactinolite__R060189-3__Raman__514__0__ccw__Raman_Data_Processed__13250.txt
30, 0.0
36, 0.0
42, 0.0
48, 0.0
54, 0.0
60, 0.0
66, 0.0
72, 0.0
78, 0.0
84, 0.0
90, 0.0
96.0, 0.000332136
102.0, 0.00290616
108.0, 0.0779754
114.0, 0.0402551
120.0, 0.0208554
126.0, 0.0240031
132.0, 0.0518237
138.0, 0.0687115
144.0, 0.212884
150.0, 0.254149
156.0, 0.076539
162.0, 0.0511618
168.0, 0.138954
174.0, 0.185808
180.0, 0.0810856
186.0, 0.0606308
192.0, 0.114917
198.0, 0.189441
204.0, 0.294493
210.0, 0.326847
216.0, 0.408487
222.0, 0.341026
228.0, 0.262805
234.0, 0.177414
240.0, 0.11441
246.0, 0.0739484
252.0, 0.0413437
258.0, 0.0200269
264.0, 0.00702848
270.0, 0.00153206
276.0, 0.00124763
282.0, 0.00145229
288.0, 0.0103509
294.0, 0.00986102
300.0, 0.0098177
306.0, 0.00978953
312.0, 0.00944395
318.0, 0.0111848
324.0, 0.0272648
330.0, 0.0422204
336.0, 0.0607581
342.0, 0.0869422
348.0, 0.0975262
354.0, 0.124564
360.0, 0.131432
366.0, 0.124183
372.0, 0.13922
378.0, 0.190326
384.0, 0.194841
390.0, 0.155612
396.0, 0.115835
402.0, 0.0834453
408.0, 0.0585981
414.0, 0.0399785
420.0, 0.0316476
426.0, 0.0692892
432.0, 0.0955065
438.0, 0.038259
444.0, 0.0110219
450.0, 0.00126868
456.0, 0.00531869
462.0, 0.00746039
468.0, 0.00556983
474.0, 0.000369313
480.0, 0.00657132
486.0, 0.0201999
492.0, 0.0381345
498.0, 0.0648347
504.0, 0.0883152
510.0, 0.11258
516.0, 0.135086
522.0, 0.144202
528.0, 0.127266
534.0, 0.102453
540.0, 0.0907104
546.0, 0.0787529
552.0, 0.0669167
558.0, 0.059791
564.0, 0.0602741
570.0, 0.0502839
576.0, 0.0374726
582.0, 0.0186048
588.0, 0.00867589
594.0, 0.00224552
600.0, 0.000658852
606.0, 0.00202928
612.0, 0.00427882
618.0, 0.00986419
624.0, 0.0225619
630.0, 0.0409676
636.0, 0.0730669
642.0, 0.112472
648.0, 0.175893
654.0, 0.32444
660.0, 0.675418
666.0, 0.998832
672.0, 0.621202
678.0, 0.288488
684.0, 0.163255
690.0, 0.103303
696.0, 0.0687378
702.0, 0.0498768
708.0, 0.0382616
714.0, 0.0353371
720.0, 0.0338149
726.0, 0.0381675
732.0, 0.0512522
738.0, 0.05826
744.0, 0.0479205
750.0, 0.0343518
756.0, 0.0253731
762.0, 0.0199873
768.0, 0.0163574
774.0, 0.00692656
780.0, 0.00708615
786.0, 0.000976823
792.0, 0.00149594
798.0, 0.000416455
804.0, 0.00420292
810.0, 0.00389992
816.0, 0.00339172
822.0, 0.00184615
828.0, 0.00694931
834.0, 0.00210751
840.0, 0.00396904
846.0, 0.00497245
852.0, 0.0105454
858.0, 0.0112896
864.0, 0.0199436
870.0, 0.0175511
876.0, 0.0270298
882.0, 0.0345866
888.0, 0.0409734
894.0, 0.0583788
900.0, 0.0659645
906.0, 0.073538
912.0, 0.0897783
918.0, 0.116165
924.0, 0.135805
930.0, 0.119662
936.0, 0.095289
942.0, 0.0907455
948.0, 0.0903474
954.0, 0.0898899
960.0, 0.0870743
966.0, 0.091013
972.0, 0.0910697
978.0, 0.0917787
984.0, 0.0954736
990.0, 0.106948
996.0, 0.126634
1002.0, 0.157598
1008.0, 0.196676
1014.0, 0.259321
1020.0, 0.325854
1026.0, 0.308774
1032.0, 0.247977
1038.0, 0.262914
1044.0, 0.320707
1050.0, 0.320523
1056.0, 0.297421
1062.0, 0.27774
1068.0, 0.163457
1074.0, 0.0974686
1080.0, 0.0676541
1086.0, 0.0536841
1092.0, 0.0437401
1098.0, 0.0431033
1104.0, 0.0409295
1110.0, 0.0351433
1116.0, 0.0310533
1122.0, 0.0410255
1128.0, 0.0323467
1134.0, 0.0163928
1140.0, 0.010332
1146.0, 0.00228034
1152.0, 0.0027203
1158.0, 0.00023239
1164.0, 0.00149103
1170.0, 0.000256514
1176.0, 0.00379168
1182.0, 0.00129243
1188.0, 0.0030646
1194.0, 0.00162949
1200.0, 0.00307344
1206.0, 0.00159643
1212.0, 0.00343562
1218.0, 0.000447173
1224.0, 0.00146978
1230.0, 0.000465948
1236.0, 0.0024338
1242.0, 0.00492873
1248.0, 0.00779299
1254.0, 0.010863
1260.0, 0.00469679
1266.0, 0.0105383
1272.0, 0.00815332
1278.0, 0.0104316
1284.0, 0.0109888
1290.0, 0.01344
1296.0, 0.00963334
1302.0, 0.0128837
1308.0, 0.0135521
1314.0, 0.012835
1320.0, 0.0165236
1326.0, 0.00808613
1332.0, 0.0118092
1338.0, 0.00918378
1344.0, 0.0143492
1350.0, 0.00777723
1356.0, 0.00755148
1362.0, 0.010723
1368.0, 0.00837861
1374.0, 0.0100873
1380.0, 0.00548387
1386.0, 0.00909392
1392.0, 0.0072234
1398.0, 0.00878263
1404.0, 0.0085998
1410.0, 0.00436217
1416.0, 0.00415164
1422.0, 0.00389198
1428.0, 0.00530251
1434.0, 0.00385888
1440.0, 0.00731031
1446.0, 0.00332081
1452.0, 0.00275045
1458.0, 0.00151806
1464.0, 0.0027242
1470.0, 0.00122459
1476.0, 0.00545879
1482.0, 0.00215553
1488.0, 0.00789168
1494.0, 0.00420288
1500.0, 0.00541435
1506.0, 0.0104652
1512.0, 0.0069067
1518.0, 0.00838835
1524.0, 0.0115
1530.0, 0.00974751
1536.0, 0.00830481
1542.0, 0.00640307
1548.0, 0.00629799
1554.0, 0.0157434
1560.0, 0.00366499
1566.0, 0.000628171
1572, 0.0
1578, 0.0
1584, 0.0
1590, 0.0
1596, 0.0
1599, 0.0

File: Ferroactinolite__R060189-3__Raman__514__45__ccw__Raman_Data_Processed__13252.txt
30, 0.0
36, 0.0
42, 0.0
48, 0.0
54, 0.0
60, 0.0
66, 0.0
72, 0.0
78, 0.0
84, 0.0
90, 0.0
96.0, 0.000119603
102.0, 0.00179933
108.0, 0.0314567
114.0, 0.0166969
120.0, 0.0103038
126.0, 0.0120497
132.0, 0.0312316
138.0, 0.0621264
144.0, 0.251825
150.0, 0.353662
156.0, 0.106096
162.0, 0.0836209
168.0, 0.216975
174.0, 0.328331
180.0, 0.134648
186.0, 0.0766802
192.0, 0.0862716
198.0, 0.1208
204.0, 0.186799
210.0, 0.271765
216.0, 0.407247
222.0, 0.364562
228.0, 0.198179
234.0, 0.0962448
240.0, 0.0571604
246.0, 0.038621
252.0, 0.0296041
258.0, 0.0244544
264.0, 0.0216983
270.0, 0.0192683
276.0, 0.0248806
282.0, 0.0294907
288.0, 0.0309195
294.0, 0.0291122
300.0, 0.019469
306.0, 0.0171477
312.0, 0.0165416
318.0, 0.0222501
324.0, 0.0302734
330.0, 0.0339831
336.0, 0.0420583
342.0, 0.0540339
348.0, 0.0636782
354.0, 0.0763173
360.0, 0.0747117
366.0, 0.0555468
372.0, 0.0451279
378.0, 0.0497503
384.0, 0.0470533
390.0, 0.0348737
396.0, 0.0189375
402.0, 0.0121402
408.0, 0.0060547
414.0, 0.0011531
420.0, 0.000313459
426.0, 0.00396976
432.0, 0.00807262
438.0, 0.00122699
444.0, 0.00322252
450.0, 0.00406124
456.0, 0.00321488
462.0, 0.00111118
468.0, 0.00254077
474.0, 0.000989311
480.0, 0.00117806
486.0, 0.00399399
492.0, 0.00847066
498.0, 0.0139682
504.0, 0.0208412
510.0, 0.0276259
516.0, 0.0336705
522.0, 0.046968
528.0, 0.0438326
534.0, 0.03625
540.0, 0.0323546
546.0, 0.0250988
552.0, 0.0218378
558.0, 0.0197931
564.0, 0.0172745
570.0, 0.0171886
576.0, 0.0126869
582.0, 0.00835272
588.0, 0.00476221
594.0, 0.00441901
600.0, 0.00769334
606.0, 0.0107295
612.0, 0.0141443
618.0, 0.0241684
624.0, 0.0356318
630.0, 0.0549561
636.0, 0.0869589
642.0, 0.127675
648.0, 0.196046
654.0, 0.348656
660.0, 0.706996
666.0, 0.99798
672.0, 0.55922
678.0, 0.237467
684.0, 0.123441
690.0, 0.0707639
696.0, 0.0431688
702.0, 0.027363
708.0, 0.0193121
714.0, 0.0161939
720.0, 0.0148882
726.0, 0.0148106
732.0, 0.017058
738.0, 0.0176751
744.0, 0.0147148
750.0, 0.0117224
756.0, 0.00789398
762.0, 0.00580901
768.0, 0.00665577
774.0, 0.00261851
780.0, 0.00103809
786.0, 0.000994354
792.0, 0.00335116
798.0, 0.000149927
804.0, 0.00190077
810.0, 0.00109703
816.0, 0.000173896
822.0, 0.00194554
828.0, 0.000712853
834.0, 0.00282477
840.0, 0.00188726
846.0, 0.00375731
852.0, 0.0011094
858.0, 0.00591818
864.0, 0.00602246
870.0, 0.010872
876.0, 0.0144342
882.0, 0.0203955
888.0, 0.0268991
894.0, 0.0409072
900.0, 0.047776
906.0, 0.053343
912.0, 0.0712924
918.0, 0.0916315
924.0, 0.118731
930.0, 0.0988286
936.0, 0.075912
942.0, 0.0675177
948.0, 0.064785
954.0, 0.0563987
960.0, 0.055923
966.0, 0.0550263
972.0, 0.0488675
978.0, 0.0492955
984.0, 0.0491949
990.0, 0.0553327
996.0, 0.0615653
1002.0, 0.0760613
1008.0, 0.0940821
1014.0, 0.113291
1020.0, 0.130015
1026.0, 0.145304
1032.0, 0.169611
1038.0, 0.245943
1044.0, 0.34706
1050.0, 0.337855
1056.0, 0.264532
1062.0, 0.217606
1068.0, 0.120963
1074.0, 0.0676253
1080.0, 0.0452813
1086.0, 0.0337996
1092.0, 0.0262571
1098.0, 0.0212982
1104.0, 0.0186048
1110.0, 0.0142131
1116.0, 0.0128167
1122.0, 0.0138079
1128.0, 0.0118815
1134.0, 0.00577653
1140.0, 0.00196871
1146.0, 0.00109749
1152.0, 0.000400965
1158.0, 0.00253683
1164.0, 0.000651997
1170.0, 0.000493687
1176.0, 0.000543631
1182.0, 0.00077961
1188.0, 0.000308639
1194.0, 0.00155655
1200.0, 0.000608255
1206.0, 0.00224808
1212.0, 0.00123891
1218.0, 0.00085048
1224.0, 0.000964216
1230.0, 0.00320934
1236.0, 0.000854792
1242.0, 0.00419884
1248.0, 0.00379228
1254.0, 0.00425791
1260.0, 0.00458553
1266.0, 0.00465008
1272.0, 0.002971
1278.0, 0.0047958
1284.0, 0.00512299
1290.0, 0.00700509
1296.0, 0.00693207
1302.0, 0.00524868
1308.0, 0.00709815
1314.0, 0.00669549
1320.0, 0.00573698
1326.0, 0.00650985
1332.0, 0.00703771
1338.0, 0.0056146
1344.0, 0.00708066
1350.0, 0.00458485
1356.0, 0.00747873
1362.0, 0.00578668
1368.0, 0.00417846
1374.0, 0.00354742
1380.0, 0.00517069
1386.0, 0.00252542
1392.0, 0.00336205
1398.0, 0.00294238
1404.0, 0.00297261
1410.0, 0.00194004
1416.0, 0.00363716
1422.0, 0.00486743
1428.0, 0.00414866
1434.0, 0.00118717
1440.0, 0.000681104
1446.0, 0.000677925
1452.0, 0.00182162
1458.0, 0.00284908
1464.0, 0.00318057
1470.0, 0.00134963
1476.0, 0.000782129
1482.0, 0.00377215
1488.0, 0.000838274
1494.0, 0.00524913
1500.0, 0.00243447
1506.0, 0.00138112
1512.0, 0.00474939
1518.0, 0.00383813
1524.0, 0.00415212
1530.0, 0.0035732
1536.0, 0.00539732
1542.0, 0.00273883
1548.0, 0.00171018
1554.0, 0.00793645
1560.0, 0.00311704
1566.0, 0.000606607
1572, 0.0
1578, 0.0
1584, 0.0
1590, 0.0
1596, 0.0
1599, 0.0

File: Ferroactinolite__R060189-3__Raman__514__90__ccw__Raman_Data_Processed__13254.txt
30, 0.0
36, 0.0
42, 0.0
48, 0.0
54, 0.0
60, 0.0
66, 0.0
72, 0.0
78, 0.0
84, 0.0
90, 0.0
96.0, 0.000140214
102.0, 0.00268924
108.0, 0.0221439
114.0, 0.0121907
120.0, 0.0063446
126.0, 0.005185
132.0, 0.0198916
138.0, 0.0569022
144.0, 0.224339
150.0, 0.347536
156.0, 0.116008
162.0, 0.0849846
168.0, 0.210539
174.0, 0.331437
180.0, 0.142326
186.0, 0.076996
192.0, 0.0820762
198.0, 0.115792
204.0, 0.174224
210.0, 0.255572
216.0, 0.390609
222.0, 0.362977
228.0, 0.199527
234.0, 0.0908475
240.0, 0.05263
246.0, 0.036893
252.0, 0.0289944
258.0, 0.0243038
264.0, 0.0237218
270.0, 0.022773
276.0, 0.0233768
282.0, 0.0276156
288.0, 0.0309972
294.0, 0.0275904
300.0, 0.018689
306.0, 0.0161914
312.0, 0.0152083
318.0, 0.0175268
324.0, 0.0239766
330.0, 0.0270267
336.0, 0.0320022
342.0, 0.0378042
348.0, 0.0479285
354.0, 0.0533413
360.0, 0.052737
366.0, 0.0405432
372.0, 0.0342849
378.0, 0.0396592
384.0, 0.0389596
390.0, 0.0303635
396.0, 0.0185165
402.0, 0.0117759
408.0, 0.00719966
414.0, 0.00142939
420.0, 0.000426736
426.0, 0.00266519
432.0, 0.00463133
438.0, 0.00119431
444.0, 0.00269853
450.0, 0.0032076
456.0, 0.00103145
462.0, 0.00126919
468.0, 0.0012827
474.0, 0.000526994
480.0, 0.000813644
486.0, 0.000448619
492.0, 0.004239
498.0, 0.00760429
504.0, 0.013691
510.0, 0.0170785
516.0, 0.0220232
522.0, 0.0317105
528.0, 0.0342419
534.0, 0.0284403
540.0, 0.0252074
546.0, 0.0210264
552.0, 0.0182896
558.0, 0.0154719
564.0, 0.0144871
570.0, 0.0138588
576.0, 0.011203
582.0, 0.00694132
588.0, 0.00477161
594.0, 0.00262831
600.0, 0.00713391
606.0, 0.0105775
612.0, 0.0138175
618.0, 0.0223723
624.0, 0.0320005
630.0, 0.0508398
636.0, 0.0773113
642.0, 0.116537
648.0, 0.181114
654.0, 0.324075
660.0, 0.67451
666.0, 0.998771
672.0, 0.583098
678.0, 0.229309
684.0, 0.112587
690.0, 0.0628198
696.0, 0.0389718
702.0, 0.0243321
708.0, 0.0178158
714.0, 0.0135462
720.0, 0.0115325
726.0, 0.0105669
732.0, 0.0119098
738.0, 0.0138273
744.0, 0.0119713
750.0, 0.00982492
756.0, 0.00716855
762.0, 0.00525192
768.0, 0.00457545
774.0, 0.003841
780.0, 0.00301436
786.0, 0.000657556
792.0, 0.00145135
798.0, 0.00190693
804.0, 0.00267736
810.0, 0.000841311
816.0, 0.000819404
822.0, 0.00101826
828.0, 0.000361892
834.0, 0.000576574
840.0, 0.000657284
846.0, 0.00301108
852.0, 0.00142192
858.0, 0.00404451
864.0, 0.00469015
870.0, 0.00762509
876.0, 0.00934884
882.0, 0.0142049
888.0, 0.0179511
894.0, 0.0266022
900.0, 0.0334346
906.0, 0.0401633
912.0, 0.05494
918.0, 0.079934
924.0, 0.107436
930.0, 0.0899857
936.0, 0.0661169
942.0, 0.0566275
948.0, 0.0530492
954.0, 0.0455928
960.0, 0.0439147
966.0, 0.0414764
972.0, 0.0449303
978.0, 0.0376719
984.0, 0.0380927
990.0, 0.0409577
996.0, 0.0485445
1002.0, 0.0569531
1008.0, 0.0719864
1014.0, 0.0882623
1020.0, 0.105842
1026.0, 0.122261
1032.0, 0.150111
1038.0, 0.221977
1044.0, 0.32586
1050.0, 0.338395
1056.0, 0.255125
1062.0, 0.219529
1068.0, 0.120632
1074.0, 0.0668587
1080.0, 0.040668
1086.0, 0.0304503
1092.0, 0.0230947
1098.0, 0.0213122
1104.0, 0.0167168
1110.0, 0.0138074
1116.0, 0.00989062
1122.0, 0.011962
1128.0, 0.00924389
1134.0, 0.00521879
1140.0, 0.00227911
1146.0, 0.00187022
1152.0, 0.000378345
1158.0, 0.00227199
1164.0, 0.00188451
1170.0, 0.000156623
1176.0, 0.000997365
1182.0, 0.000516234
1188.0, 0.00178671
1194.0, 0.000865411
1200.0, 0.00106852
1206.0, 0.00152358
1212.0, 0.0023851
1218.0, 0.00111938
1224.0, 0.000860668
1230.0, 0.00222819
1236.0, 0.00311938
1242.0, 0.00296723
1248.0, 0.00367814
1254.0, 0.00316202
1260.0, 0.00281906
1266.0, 0.00401728
1272.0, 0.00471856
1278.0, 0.00425244
1284.0, 0.00537098
1290.0, 0.00433866
1296.0, 0.00512051
1302.0, 0.00446061
1308.0, 0.00410162
1314.0, 0.00519602
1320.0, 0.00580596
1326.0, 0.00409818
1332.0, 0.0039104
1338.0, 0.00430092
1344.0, 0.00397758
1350.0, 0.00541617
1356.0, 0.00155508
1362.0, 0.00273404
1368.0, 0.00445947
1374.0, 0.00249969
1380.0, 0.00322975
1386.0, 0.00130966
1392.0, 0.00165709
1398.0, 0.00122102
1404.0, 0.00159585
1410.0, 0.00149888
1416.0, 0.00132229
1422.0, 0.000238959
1428.0, 0.00155905
1434.0, 0.00231124
1440.0, 0.00140569
1446.0, 0.0019965
1452.0, 0.000510073
1458.0, 0.00107001
1464.0, 0.00212834
1470.0, 0.00160157
1476.0, 0.00250028
1482.0, 0.00186192
1488.0, 0.00229563
1494.0, 6.89968e-05
1500.0, 0.00262787
1506.0, 0.00497599
1512.0, 0.00345498
1518.0, 0.00282084
1524.0, 0.00362885
1530.0, 0.00342306
1536.0, 0.00360224
1542.0, 0.00298299
1548.0, 0.00277537
1554.0, 0.00461279
1560.0, 0.000294715
1566.0, 0.00189249
1572, 0.0
1578, 0.0
1584, 0.0
1590, 0.0
1596, 0.0
1599, 0.0

File: Ferroactinolite__R060189-4__Raman__514__0__ccw__Raman_Data_Processed__13256.txt
30, 0.0
36, 0.0
42, 0.0
48, 0.0
54, 0.0
60, 0.0
66, 0.0
72, 0.0
78, 0.0
84, 0.0
90, 0.0
96.0, 3.57046e-05
102.0, 0.020785
108.0, 0.184309
114.0, 0.23643
120.0, 0.135257
126.0, 0.045855
132.0, 0.0627155
138.0, 0.0951008
144.0, 0.172168
150.0, 0.123095
156.0, 0.0763206
162.0, 0.10999
168.0, 0.251643
174.0, 0.288592
180.0, 0.158388
186.0, 0.103381
192.0, 0.12641
198.0, 0.151613
204.0, 0.18121
210.0, 0.13249
216.0, 0.157684
222.0, 0.144335
228.0, 0.0595892
234.0, 0.0334233
240.0, 0.0164626
246.0, 0.00529566
252.0, 0.0111591
258.0, 0.00621437
264.0, 0.00971705
270.0, 0.0058174
276.0, 0.00402145
282.0, 0.00503266
288.0, 0.00513569
294.0, 0.0144981
300.0, 0.000854657
306.0, 0.00776234
312.0, 0.00623267
318.0, 0.00171812
324.0, 0.0201469
330.0, 0.0286316
336.0, 0.058956
342.0, 0.0929766
348.0, 0.137847
354.0, 0.174332
360.0, 0.185973
366.0, 0.16285
372.0, 0.174874
378.0, 0.201595
384.0, 0.183209
390.0, 0.136939
396.0, 0.098056
402.0, 0.0697546
408.0, 0.033473
414.0, 0.0233814
420.0, 0.014559
426.0, 0.00915437
432.0, 0.000364663
438.0, 0.00509861
444.0, 0.000667
450.0, 0.00252635
456.0, 0.00695
462.0, 0.000639935
468.0, 0.00981011
474.0, 0.000784129
480.0, 0.0110014
486.0, 0.0164483
492.0, 0.0292488
498.0, 0.0428423
504.0, 0.0464399
510.0, 0.0655479
516.0, 0.0669179
522.0, 0.0777172
528.0, 0.0853886
534.0, 0.0901447
540.0, 0.0835836
546.0, 0.0751035
552.0, 0.0768081
558.0, 0.0708883
564.0, 0.0717129
570.0, 0.0660872
576.0, 0.0490256
582.0, 0.0380431
588.0, 0.0080881
594.0, 0.0235079
600.0, 0.010142
606.0, 0.0204287
612.0, 0.0194326
618.0, 0.031371
624.0, 0.0355002
630.0, 0.05418
636.0, 0.087815
642.0, 0.123494
648.0, 0.201313
654.0, 0.370664
660.0, 0.72434
666.0, 0.998758
672.0, 0.578651
678.0, 0.276051
684.0, 0.145708
690.0, 0.0942265
696.0, 0.068428
702.0, 0.0494081
708.0, 0.0389138
714.0, 0.0428777
720.0, 0.0349781
726.0, 0.0382524
732.0, 0.0585671
738.0, 0.057097
744.0, 0.0661704
750.0, 0.0310295
756.0, 0.0283427
762.0, 0.0257955
768.0, 0.024965
774.0, 0.015639
780.0, 0.0060913
786.0, 0.00976539
792.0, 0.00592032
798.0, 0.00431211
804.0, 0.0123788
810.0, 0.0106759
816.0, 0.00340508
822.0, 0.00198011
828.0, 0.0149072
834.0, 0.014114
840.0, 0.0127553
846.0, 0.0193731
852.0, 0.00737773
858.0, 0.0147688
864.0, 0.0203411
870.0, 0.0232446
876.0, 0.0286724
882.0, 0.0242935
888.0, 0.00571816
894.0, 0.0192151
900.0, 0.0303881
906.0, 0.0265736
912.0, 0.0452424
918.0, 0.0469621
924.0, 0.0523801
930.0, 0.0495134
936.0, 0.033072
942.0, 0.0234641
948.0, 0.0284795
954.0, 0.0240923
960.0, 0.0225363
966.0, 0.0165271
972.0, 0.01606
978.0, 0.0166417
984.0, 0.0185487
990.0, 0.0170126
996.0, 0.0287128
1002.0, 0.0260155
1008.0, 0.0245659
1014.0, 0.0541315
1020.0, 0.084853
1026.0, 0.0856159
1032.0, 0.0809629
1038.0, 0.0890232
1044.0, 0.131937
1050.0, 0.13386
1056.0, 0.163219
1062.0, 0.169354
1068.0, 0.0955933
1074.0, 0.0503098
1080.0, 0.0412242
1086.0, 0.0347445
1092.0, 0.0283254
1098.0, 0.0211266
1104.0, 0.0116189
1110.0, 0.00618507
1116.0, 0.00632114
1122.0, 0.0258934
1128.0, 0.0224091
1134.0, 0.00350835
1140.0, 0.00930889
1146.0, 0.00754132
1152.0, 0.00374645
1158.0, 0.0217422
1164.0, 0.00536149
1170.0, 0.0080873
1176.0, 0.0175606
1182.0, 0.00444842
1188.0, 0.00640789
1194.0, 0.0108349
1200.0, 0.0184834
1206.0, 0.0161856
1212.0, 0.0098385
1218.0, 0.0144798
1224.0, 0.0132586
1230.0, 0.00715962
1236.0, 0.0318164
1242.0, 0.0170658
1248.0, 0.0178546
1254.0, 0.0184932
1260.0, 0.014154
1266.0, 0.0362486
1272.0, 0.0335172
1278.0, 0.0317363
1284.0, 0.0380338
1290.0, 0.033845
1296.0, 0.0334537
1302.0, 0.0421444
1308.0, 0.0465302
1314.0, 0.0471896
1320.0, 0.0373076
1326.0, 0.0496073
1332.0, 0.0373343
1338.0, 0.0337021
1344.0, 0.057155
1350.0, 0.0561926
1356.0, 0.040685
1362.0, 0.0667782
1368.0, 0.0662184
1374.0, 0.0523732
1380.0, 0.0414116
1386.0, 0.0392481
1392.0, 0.0263584
1398.0, 0.0337785
1404.0, 0.0281727
1410.0, 0.0273532
1416.0, 0.0232115
1422.0, 0.0136435
1428.0, 0.0150601
1434.0, 0.00817204
1440.0, 0.0115311
1446.0, 0.00216689
1452.0, 0.00179669
1458.0, 0.00357869
1464.0, 0.00427853
1470.0, 0.00857125
1476.0, 0.0101784
1482.0, 0.0145111
1488.0, 0.00587203
1494.0, 0.0145282
1500.0, 0.0199787
1506.0, 0.0223461
1512.0, 0.0141879
1518.0, 0.00737838
1524.0, 3.46334e-06
1530, 0.0
1536, 0.0
1542, 0.0
1548, 0.0
1554, 0.0
1560, 0.0
1566, 0.0
1572, 0.0
1578, 0.0
1584, 0.0
1590, 0.0
1596, 0.0
1599, 0.0

File: Ferroactinolite__R060189-4__Raman__514__45__ccw__Raman_Data_Processed__13258.txt
30, 0.0
36, 0.0
42, 0.0
48, 0.0
54, 0.0
60, 0.0
66, 0.0
72, 0.0
78, 0.0
84, 0.0
90, 0.0
96.0, 2.43e-05
102.0, 0.00805925
108.0, 0.126705
114.0, 0.177801
120.0, 0.0801133
126.0, 0.0526416
132.0, 0.0774882
138.0, 0.115703
144.0, 0.331822
150.0, 0.261964
156.0, 0.0911784
162.0, 0.0738415
168.0, 0.19227
174.0, 0.221515
180.0, 0.0966752
186.0, 0.073953
192.0, 0.116229
198.0, 0.164554
204.0, 0.230889
210.0, 0.211565
216.0, 0.262258
222.0, 0.197988
228.0, 0.132105
234.0, 0.0892167
240.0, 0.0585355
246.0, 0.0305725
252.0, 0.014322
258.0, 0.00648457
264.0, 0.00577076
270.0, 0.00966743
276.0, 0.00615499
282.0, 0.00412069
288.0, 0.0124119
294.0, 0.0106507
300.0, 0.0138159
306.0, 0.0128352
312.0, 0.0222457
318.0, 0.0288445
324.0, 0.0475411
330.0, 0.0666681
336.0, 0.0721013
342.0, 0.0786495
348.0, 0.0985605
354.0, 0.113915
360.0, 0.115726
366.0, 0.101804
372.0, 0.120255
378.0, 0.14797
384.0, 0.155156
390.0, 0.117737
396.0, 0.0850895
402.0, 0.0673149
408.0, 0.0331745
414.0, 0.018854
420.0, 0.0180262
426.0, 0.0385553
432.0, 0.0401221
438.0, 0.0148124
444.0, 0.0059328
450.0, 0.00731438
456.0, 0.00518459
462.0, 0.0044024
468.0, 0.00507727
474.0, 0.0243434
480.0, 0.00952557
486.0, 0.0203454
492.0, 0.0372032
498.0, 0.0576118
504.0, 0.0712259
510.0, 0.0858324
516.0, 0.0939612
522.0, 0.108728
528.0, 0.104602
534.0, 0.0984906
540.0, 0.0841311
546.0, 0.0745261
552.0, 0.0667171
558.0, 0.063104
564.0, 0.0647885
570.0, 0.0501295
576.0, 0.0374161
582.0, 0.0301782
588.0, 0.0125466
594.0, 0.0144807
600.0, 0.0110344
606.0, 0.00485036
612.0, 0.0132149
618.0, 0.0178509
624.0, 0.0295329
630.0, 0.0537335
636.0, 0.0921629
642.0, 0.138073
648.0, 0.202317
654.0, 0.368244
660.0, 0.74098
666.0, 0.998213
672.0, 0.585441
678.0, 0.270553
684.0, 0.147993
690.0, 0.0964333
696.0, 0.0682661
702.0, 0.0428906
708.0, 0.0291633
714.0, 0.0294523
720.0, 0.0338609
726.0, 0.0446516
732.0, 0.0625436
738.0, 0.0577872
744.0, 0.0431235
750.0, 0.030641
756.0, 0.0290124
762.0, 0.0158776
768.0, 0.0163494
774.0, 0.0067277
780.0, 0.00289009
786.0, 0.00428316
792.0, 0.00122274
798.0, 0.00125018
804.0, 0.00430731
810.0, 0.00429824
816.0, 0.00137195
822.0, 0.00351915
828.0, 0.00200289
834.0, 0.00664626
840.0, 0.00248785
846.0, 0.0115917
852.0, 0.00415351
858.0, 0.0146644
864.0, 0.0178623
870.0, 0.0230275
876.0, 0.0339323
882.0, 0.0359952
888.0, 0.0321084
894.0, 0.0608814
900.0, 0.0687967
906.0, 0.0829759
912.0, 0.083195
918.0, 0.106662
924.0, 0.130568
930.0, 0.109969
936.0, 0.0925466
942.0, 0.08391
948.0, 0.0790511
954.0, 0.0802879
960.0, 0.0780326
966.0, 0.0737177
972.0, 0.0672386
978.0, 0.0622767
984.0, 0.0606792
990.0, 0.0729395
996.0, 0.0882759
1002.0, 0.101873
1008.0, 0.126993
1014.0, 0.162292
1020.0, 0.197785
1026.0, 0.196257
1032.0, 0.180788
1038.0, 0.214762
1044.0, 0.274237
1050.0, 0.261135
1056.0, 0.239885
1062.0, 0.223571
1068.0, 0.12291
1074.0, 0.0736238
1080.0, 0.0616825
1086.0, 0.0471908
1092.0, 0.03596
1098.0, 0.0326846
1104.0, 0.0308871
1110.0, 0.0209124
1116.0, 0.0160419
1122.0, 0.0317834
1128.0, 0.0239915
1134.0, 0.00602412
1140.0, 0.00389294
1146.0, 0.00645763
1152.0, 0.00241438
1158.0, 0.00188735
1164.0, 0.00971468
1170.0, 0.0109677
1176.0, 0.00406118
1182.0, 0.00478962
1188.0, 0.00127763
1194.0, 0.00300035
1200.0, 0.0066954
1206.0, 0.00482419
1212.0, 0.00574303
1218.0, 0.00396199
1224.0, 0.00168118
1230.0, 0.0101118
1236.0, 0.0140336
1242.0, 0.00849388
1248.0, 0.007795
1254.0, 0.00853217
1260.0, 0.00821425
1266.0, 0.0101193
1272.0, 0.00769683
1278.0, 0.0171905
1284.0, 0.020556
1290.0, 0.021663
1296.0, 0.0182101
1302.0, 0.0149997
1308.0, 0.0251619
1314.0, 0.0201445
1320.0, 0.024252
1326.0, 0.0145048
1332.0, 0.0218303
1338.0, 0.0254941
1344.0, 0.02882
1350.0, 0.0295044
1356.0, 0.0260265
1362.0, 0.0167744
1368.0, 0.0222526
1374.0, 0.0263134
1380.0, 0.0195387
1386.0, 0.0170574
1392.0, 0.0175583
1398.0, 0.0171989
1404.0, 0.0190763
1410.0, 0.0101759
1416.0, 0.00625855
1422.0, 0.00581768
1428.0, 0.00387446
1434.0, 0.00746375
1440.0, 0.00442329
1446.0, 0.0014581
1452.0, 0.00335337
1458.0, 0.00278205
1464.0, 0.00709265
1470.0, 0.00474311
1476.0, 0.0109435
1482.0, 0.0108485
1488.0, 0.0130122
1494.0, 0.0137444
1500.0, 0.0101796
1506.0, 0.0176655
1512.0, 0.014745
1518.0, 0.0218398
1524.0, 0.0166468
1530.0, 0.018441
1536.0, 0.0265326
1542.0, 0.0216423
1548.0, 0.0198967
1554.0, 0.0240846
1560.0, 0.0105206
1566.0, 0.00302656
1572, 0.0
1578, 0.0
1584, 0.0
1590, 0.0
1596, 0.0
1599, 0.0