Folder: 1D_CNN_For_Mineral_Classification/raw data/Dataset_2/Ferrokesterite

File: Ferrokesterite__R060870__Raman__532__0__unoriented__Raman_Data_Processed__14123.txt
30, 0.0
36, 0.0
42, 0.0
48, 0.0
54, 0.0
60, 0.0
66, 0.0
72, 0.0
78, 0.0
84, 0.0
90, 0.0
96, 0.0
102, 0.0
108, 0.0
114, 0.0
120, 0.0
126, 0.0
132, 0.0
138, 0.0
144.0, 0.00833114
150.0, 0.005715
156.0, 0.045084
162.0, 0.0184433
168.0, 0.0186927
174.0, 0.022727
180.0, 0.0157541
186.0, 0.0170808
192.0, 0.00905778
198.0, 0.0134482
204.0, 0.00822583
210.0, 0.0159352
216.0, 0.00685878
222.0, 0.00778667
228.0, 0.0103941
234.0, 0.0101756
240.0, 0.00260231
246.0, 0.0438245
252.0, 0.0434095
258.0, 0.0199708
264.0, 0.0183095
270.0, 0.0373083
276.0, 0.0629569
282.0, 0.123755
288.0, 0.126273
294.0, 0.0901059
300.0, 0.106645
306.0, 0.217933
312.0, 0.506123
318.0, 0.916726
324.0, 0.862032
330.0, 0.451393
336.0, 0.245499
342.0, 0.193489
348.0, 0.116523
354.0, 0.101673
360.0, 0.0752155
366.0, 0.0284983
372.0, 0.00794954
378.0, 0.000282524
384.0, 0.00843068
390.0, 0.00861531
396.0, 0.00598736
402.0, 0.00191917
408.0, 0.0199343
414.0, 0.0199071
420.0, 0.00858763
426.0, 0.030956
432.0, 0.0068854
438.0, 0.0101132
444.0, 0.0158611
450.0, 0.024373
456.0, 0.033973
462.0, 0.0337869
468.0, 0.025362
474.0, 0.0502085
480.0, 0.0332363
486.0, 0.0114563
492.0, 0.0193239
498.0, 0.00298132
504.0, 0.00337199
510.0, 0.0117967
516.0, 0.0217068
522.0, 0.00136515
528.0, 0.00784264
534.0, 0.00608243
540.0, 0.0232026
546.0, 0.0234786
552.0, 0.0118383
558.0, 0.00543263
564.0, 0.0120358
570.0, 0.0126647
576.0, 0.00415662
582.0, 0.0305826
588.0, 0.00863487
594.0, 0.00942186
600.0, 0.0335888
606.0, 0.0129229
612.0, 0.0204581
618.0, 0.030112
624.0, 0.0258733
630.0, 0.0497184
636.0, 0.0361148
642.0, 0.0452498
648.0, 0.0372821
654.0, 0.0386414
660.0, 0.0249575
666.0, 0.0159162
672.0, 0.0124203
678.0, 0.0521156
684.0, 0.0236995
690.0, 0.0234615
696.0, 0.0118892
702.0, 0.0201266
708.0, 0.0210692
714.0, 0.0111496
720.0, 0.0141622
726.0, 0.017415
732.0, 0.0222483
738.0, 0.0157143
744.0, 0.016238
750.0, 0.00290387
756.0, 0.0128105
762.0, 0.0193073
768.0, 0.0222401
774.0, 0.0118667
780.0, 0.0242557
786.0, 0.00281762
792.0, 0.0110241
798.0, 0.0105989
804.0, 0.0179077
810.0, 0.0123457
816.0, 0.0177884
822.0, 0.0214947
828.0, 0.0302608
834.0, 0.012511
840.0, 0.0305264
846.0, 0.015162
852.0, 0.0161179
858.0, 0.0192231
864.0, 0.00313183
870.0, 0.0150214
876.0, 0.0203524
882.0, 0.0188425
888.0, 0.025388
894.0, 0.0122642
900.0, 0.0140034
906.0, 0.0225413
912.0, 0.0150856
918.0, 0.00181843
924.0, 0.0116857
930.0, 0.0201577
936.0, 0.024769
942.0, 0.0096419
948.0, 0.0134735
954.0, 0.0272281
960.0, 0.0187495
966.0, 0.0200206
972.0, 0.00468496
978.0, 0.017207
984.0, 0.00950417
990.0, 0.0247763
996.0, 0.0147867
1002.0, 0.0116636
1008.0, 0.00488142
1014.0, 0.0073085
1020.0, 0.0178003
1026.0, 0.0221235
1032.0, 0.0222826
1038.0, 0.0225175
1044.0, 0.0224279
1050.0, 0.010838
1056.0, 0.0205378
1062.0, 0.0132514
1068.0, 0.0192994
1074.0, 0.00288951
1080.0, 0.0186926
1086.0, 0.0112777
1092.0, 0.0148078
1098.0, 0.0137925
1104.0, 0.0288163
1110.0, 0.0250085
1116.0, 0.0266772
1122.0, 0.0170948
1128.0, 0.0212912
1134.0, 0.0105862
1140.0, 0.0230143
1146.0, 0.000897615
1152.0, 0.0131023
1158.0, 0.0184319
1164.0, 0.0134267
1170.0, 0.0187019
1176.0, 0.0212527
1182.0, 0.0150638
1188.0, 0.027148
1194.0, 0.00483294
1200.0, 0.0161368
1206.0, 0.019407
1212.0, 0.0100248
1218.0, 0.0238085
1224.0, 0.00544403
1230.0, 0.00265839
1236.0, 0.0102255
1242.0, 0.0215449
1248.0, 0.0251305
1254.0, 0.0213515
1260.0, 0.0344094
1266, 0.0
1272, 0.0
1278, 0.0
1284, 0.0
1290, 0.0
1296, 0.0
1302, 0.0
1308, 0.0
1314, 0.0
1320, 0.0
1326, 0.0
1332, 0.0
1338, 0.0
1344, 0.0
1350, 0.0
1356, 0.0
1362, 0.0
1368, 0.0
1374, 0.0
1380, 0.0
1386, 0.0
1392, 0.0
1398, 0.0
1404, 0.0
1410, 0.0
1416, 0.0
1422, 0.0
1428, 0.0
1434, 0.0
1440, 0.0
1446, 0.0
1452, 0.0
1458, 0.0
1464, 0.0
1470, 0.0
1476, 0.0
1482, 0.0
1488, 0.0
1494, 0.0
1500, 0.0
1506, 0.0
1512, 0.0
1518, 0.0
1524, 0.0
1530, 0.0
1536, 0.0
1542, 0.0
1548, 0.0
1554, 0.0
1560, 0.0
1566, 0.0
1572, 0.0
1578, 0.0
1584, 0.0
1590, 0.0
1596, 0.0
1599, 0.0

File: Ferrokesterite__R060870__Raman__785__0__unoriented__Raman_Data_Processed__13044.txt
30, 0.0
36, 0.0
42, 0.0
48, 0.0
54, 0.0
60, 0.0
66, 0.0
72, 0.0
78, 0.0
84, 0.0
90, 0.0
96, 0.0
102, 0.0
108, 0.0
114, 0.0
120, 0.0
126, 0.0
132, 0.0
138, 0.0
144, 0.0
150, 0.0
156.0, 0.000998532
162.0, 0.00887575
168.0, 0.00933103
174.0, 0.00669251
180.0, 0.00337141
186.0, 0.00498123
192.0, 0.00228671
198.0, 0.00298544
204.0, 0.00208108
210.0, 0.00215087
216.0, 0.000854513
222.0, 0.000120101
228.0, 0.00232935
234.0, 0.00206884
240.0, 0.00456377
246.0, 0.010623
252.0, 0.0150116
258.0, 0.0167674
264.0, 0.0207917
270.0, 0.0374019
276.0, 0.0844921
282.0, 0.128377
288.0, 0.104359
294.0, 0.0853371
300.0, 0.102076
306.0, 0.197957
312.0, 0.510991
318.0, 0.94597
324.0, 0.860692
330.0, 0.388295
336.0, 0.133467
342.0, 0.0795305
348.0, 0.0557478
354.0, 0.0653096
360.0, 0.0478622
366.0, 0.0189254
372.0, 0.00618941
378.0, 0.00162892
384.0, 0.00441726
390.0, 0.00158506
396.0, 0.00065511
402.0, 0.000918071
408.0, 0.000123475
414.0, 0.00334777
420.0, 0.00163888
426.0, 0.00388756
432.0, 0.0036113
438.0, 0.0055499
444.0, 0.0043295
450.0, 0.00413899
456.0, 0.00392771
462.0, 0.00491634
468.0, 0.00399055
474.0, 0.00363897
480.0, 0.00347168
486.0, 0.00198966
492.0, 0.00240824
498.0, 0.000795124
504.0, 0.00179211
510.0, 0.000457776
516.0, 0.00115869
522.0, 0.000443033
528.0, 0.000780191
534.0, 0.000634276
540.0, 0.00155101
546.0, 0.0017705
552.0, 0.00060031
558.0, 0.00122249
564.0, 0.00150714
570.0, 0.000383426
576.0, 0.00183555
582.0, 0.00358903
588.0, 0.00488345
594.0, 0.0048365
600.0, 0.00653187
606.0, 0.0095674
612.0, 0.0125498
618.0, 0.0182453
624.0, 0.0198334
630.0, 0.0264004
636.0, 0.0291585
642.0, 0.0263264
648.0, 0.0239488
654.0, 0.0161394
660.0, 0.0106199
666.0, 0.00767017
672.0, 0.00613578
678.0, 0.00524731
684.0, 0.00259856
690.0, 0.000986021
696.0, 0.000278319
702.0, 0.00141195
708.0, 0.00176059
714.0, 0.00355309
720.0, 0.00321933
726.0, 0.00140365
732.0, 0.000172991
738.0, 0.00178611
744.0, 0.00143284
750.0, 0.00143054
756.0, 0.00192832
762.0, 0.0022126
768.0, 0.000707015
774.0, 0.00231999
780.0, 0.00198843
786.0, 0.0025688
792.0, 0.00354707
798.0, 0.00204086
804.0, 0.000244516
810.0, 0.00292835
816.0, 0.00258422
822.0, 0.00283771
828.0, 0.00149851
834.0, 0.000995981
840.0, 0.0015804
846.0, 0.00213438
852.0, 9.53578e-05
858.0, 0.00201009
864.0, 0.000520445
870.0, 0.000906768
876.0, 0.00246379
882.0, 0.00110336
888.0, 0.00053084
894.0, 0.00041222
900.0, 0.000879208
906.0, 0.000911142
912.0, 0.00161503
918.0, 0.000112006
924.0, 0.00101446
930.0, 0.00216145
936.0, 0.0017062
942.0, 0.00421143
948.0, 0.0029162
954.0, 0.00393205
960.0, 0.00382994
966.0, 0.00286899
972.0, 0.00337647
978.0, 0.00282376
984.0, 0.00269032
990.0, 0.00075476
996.0, 0.000532592
1002.0, 0.00216558
1008.0, 0.00231591
1014.0, 0.00269042
1020.0, 0.00155172
1026.0, 0.000662439
1032.0, 0.00228519
1038.0, 0.00224999
1044.0, 0.00264338
1050.0, 0.00151134
1056.0, 0.000764941
1062.0, 0.000645245
1068.0, 0.00145257
1074.0, 0.00187328
1080.0, 0.00216856
1086.0, 0.00137174
1092.0, 0.000973737
1098.0, 0.00153484
1104.0, 0.0010303
1110.0, 0.00143452
1116.0, 0.000142524
1122.0, 0.000483729
1128.0, 0.00169376
1134.0, 0.000868911
1140.0, 0.00150447
1146.0, 0.00118716
1152.0, 0.00140277
1158.0, 0.00166241
1164.0, 0.00198571
1170.0, 0.00210729
1176.0, 0.00194679
1182.0, 0.00310886
1188.0, 0.00189905
1194.0, 0.00352567
1200.0, 0.00257393
1206.0, 0.00162065
1212.0, 0.0026454
1218.0, 0.00474504
1224.0, 0.00418928
1230.0, 0.00374385
1236.0, 0.00190242
1242.0, 0.00219536
1248.0, 0.00257797
1254.0, 0.00350846
1260.0, 0.00168621
1266.0, 0.00167372
1272.0, 6.31121e-05
1278, 0.0
1284, 0.0
1290, 0.0
1296, 0.0
1302, 0.0
1308, 0.0
1314, 0.0
1320, 0.0
1326, 0.0
1332, 0.0
1338, 0.0
1344, 0.0
1350, 0.0
1356, 0.0
1362, 0.0
1368, 0.0
1374, 0.0
1380, 0.0
1386, 0.0
1392, 0.0
1398, 0.0
1404, 0.0
1410, 0.0
1416, 0.0
1422, 0.0
1428, 0.0
1434, 0.0
1440, 0.0
1446, 0.0
1452, 0.0
1458, 0.0
1464, 0.0
1470, 0.0
1476, 0.0
1482, 0.0
1488, 0.0
1494, 0.0
1500, 0.0
1506, 0.0
1512, 0.0
1518, 0.0
1524, 0.0
1530, 0.0
1536, 0.0
1542, 0.0
1548, 0.0
1554, 0.0
1560, 0.0
1566, 0.0
1572, 0.0
1578, 0.0
1584, 0.0
1590, 0.0
1596, 0.0
1599, 0.0

File: Ferrokesterite__R110173__Raman__532__0__unoriented__Raman_Data_Processed__35820.txt
30, 0.0
36, 0.0
42, 0.0
48, 0.0
54, 0.0
60, 0.0
66, 0.0
72, 0.0
78, 0.0
84, 0.0
90, 0.0
96, 0.0
102, 0.0
108, 0.0
114, 0.0
120, 0.0
126, 0.0
132, 0.0
138, 0.0
144, 0.0
150, 0.0
156, 0.0
162, 0.0
168, 0.0
174, 0.0
180.0, 5.36427e-05
186.0, 0.00417297
192.0, 0.00602492
198.0, 0.0106853
204.0, 0.0140263
210.0, 0.00735699
216.0, 0.00198776
222.0, 0.00393292
228.0, 0.00654467
234.0, 0.000561456
240.0, 0.0123024
246.0, 0.0301379
252.0, 0.0425536
258.0, 0.0536753
264.0, 0.0568595
270.0, 0.0733457
276.0, 0.106743
282.0, 0.150105
288.0, 0.185678
294.0, 0.150625
300.0, 0.129991
306.0, 0.158167
312.0, 0.223119
318.0, 0.391374
324.0, 0.6709
330.0, 0.970215
336.0, 0.923012
342.0, 0.486924
348.0, 0.317809
354.0, 0.251235
360.0, 0.186899
366.0, 0.116584
372.0, 0.0483757
378.0, 0.0132217
384.0, 0.00262819
390.0, 0.00597372
396.0, 0.00556673
402.0, 0.00137106
408.0, 0.0039324
414.0, 0.00570258
420.0, 0.00595519
426.0, 0.00836681
432.0, 0.00929083
438.0, 0.00991568
444.0, 0.010241
450.0, 0.0105189
456.0, 0.00692617
462.0, 0.00799517
468.0, 0.00995252
474.0, 0.0130991
480.0, 0.0110394
486.0, 0.00969559
492.0, 0.0096152
498.0, 0.0052903
504.0, 0.00485722
510.0, 0.00376934
516.0, 0.000737312
522.0, 0.000390096
528.0, 0.00178714
534.0, 0.000455497
540.0, 0.00070168
546.0, 0.000756152
552.0, 0.000646469
558.0, 0.000271171
564.0, 0.000572786
570.0, 0.000648592
576.0, 0.00130033
582.0, 0.00288279
588.0, 0.00239918
594.0, 0.00525894
600.0, 0.00697705
606.0, 0.0070344
612.0, 0.00892963
618.0, 0.00930045
624.0, 0.00989908
630.0, 0.0119325
636.0, 0.0147361
642.0, 0.0187208
648.0, 0.0221896
654.0, 0.0262124
660.0, 0.0290684
666.0, 0.0295472
672.0, 0.0256431
678.0, 0.0224176
684.0, 0.0184166
690.0, 0.0132436
696.0, 0.00962345
702.0, 0.00675491
708.0, 0.00270777
714.0, 0.00202165
720.0, 0.000516765
726.0, 0.000400652
732.0, 0.00131448
738.0, 0.00176018
744.0, 0.00085245
750.0, 0.000279572
756.0, 0.00160704
762.0, 0.00140565
768.0, 0.000557608
774.0, 0.00211361
780.0, 0.00129352
786.0, 0.00148665
792.0, 0.00105381
798.0, 0.000806274
804.0, 0.00151477
810.0, 0.00220314
816.0, 0.00223683
822.0, 0.00140552
828.0, 0.00375611
834.0, 0.0020312
840.0, 0.00317655
846.0, 0.00149301
852.0, 0.000292862
858.0, 0.00186421
864.0, 0.00177471
870.0, 0.00128861
876.0, 0.00217228
882.0, 0.000686833
888.0, 0.000586341
894.0, 0.00123389
900.0, 0.000364552
906.0, 0.000416396
912.0, 0.00289287
918.0, 0.0040577
924.0, 0.00208108
930.0, 0.00180111
936.0, 0.00133542
942.0, 0.00246581
948.0, 0.00423702
954.0, 0.00307842
960.0, 0.00300868
966.0, 0.00205843
972.0, 0.00236743
978.0, 0.00348302
984.0, 0.00581023
990.0, 0.00478955
996.0, 0.00648807
1002.0, 0.00522993
1008.0, 0.00513396
1014.0, 0.00519573
1020.0, 0.0045646
1026.0, 0.00267988
1032.0, 0.00297634
1038.0, 0.00214274
1044.0, 0.000477431
1050.0, 0.000632278
1056.0, 4.68679e-05
1062.0, 0.000755563
1068.0, 0.000280293
1074.0, 0.00122674
1080.0, 0.0011377
1086.0, 0.00271715
1092.0, 0.000739751
1098.0, 0.00173147
1104.0, 0.00150809
1110.0, 0.00156742
1116.0, 0.000965898
1122.0, 0.000436543
1128.0, 0.00187767
1134.0, 0.00131846
1140.0, 6.31258e-05
1146.0, 0.00274367
1152.0, 0.000711304
1158.0, 0.000205969
1164.0, 0.00186937
1170.0, 0.00241945
1176.0, 0.00197142
1182.0, 0.00219379
1188.0, 0.00240639
1194.0, 0.00196146
1200.0, 0.00198463
1206.0, 0.0027501
1212.0, 0.000921559
1218.0, 0.00161876
1224.0, 0.00305908
1230.0, 0.000751905
1236.0, 0.00235198
1242.0, 0.000516624
1248.0, 0.00123598
1254.0, 0.00268198
1260.0, 0.0027489
1266.0, 0.00224699
1272.0, 0.00338328
1278.0, 0.000988951
1284.0, 0.0017253
1290.0, 0.00119807
1296.0, 0.000961282
1302.0, 0.000445932
1308, 0.0
1314, 0.0
1320, 0.0
1326, 0.0
1332, 0.0
1338, 0.0
1344, 0.0
1350, 0.0
1356, 0.0
1362, 0.0
1368, 0.0
1374, 0.0
1380, 0.0
1386, 0.0
1392, 0.0
1398, 0.0
1404, 0.0
1410, 0.0
1416, 0.0
1422, 0.0
1428, 0.0
1434, 0.0
1440, 0.0
1446, 0.0
1452, 0.0
1458, 0.0
1464, 0.0
1470, 0.0
1476, 0.0
1482, 0.0
1488, 0.0
1494, 0.0
1500, 0.0
1506, 0.0
1512, 0.0
1518, 0.0
1524, 0.0
1530, 0.0
1536, 0.0
1542, 0.0
1548, 0.0
1554, 0.0
1560, 0.0
1566, 0.0
1572, 0.0
1578, 0.0
1584, 0.0
1590, 0.0
1596, 0.0
1599, 0.0

File: Ferrokesterite__R110173__Raman__780__0__unoriented__Raman_Data_Processed__35822.txt
30, 0.0
36, 0.0
42, 0.0
48, 0.0
54, 0.0
60, 0.0
66, 0.0
72, 0.0
78, 0.0
84, 0.0
90, 0.0
96.0, 0.0515165
102.0, 0.0019081
108.0, 0.00145066
114.0, 0.0135175
120.0, 0.021159
126.0, 0.0266579
132.0, 0.0369094
138.0, 0.0403926
144.0, 0.0330887
150.0, 0.0216864
156.0, 0.00914823
162.0, 1.83636e-05
168.0, 0.0020895
174.0, 8.88697e-05
180.0, 0.00137646
186.0, 0.000468358
192.0, 0.0028644
198.0, 0.00364792
204.0, 0.000657706
210.0, 0.000373747
216.0, 0.000281053
222.0, 0.00165355
228.0, 0.00379206
234.0, 0.00153988
240.0, 0.00276295
246.0, 0.0108851
252.0, 0.0224258
258.0, 0.0375901
264.0, 0.0516047
270.0, 0.0592666
276.0, 0.0892673
282.0, 0.204537
288.0, 0.289575
294.0, 0.145645
300.0, 0.131307
306.0, 0.139375
312.0, 0.172195
318.0, 0.281735
324.0, 0.591821
330.0, 0.987477
336.0, 0.845075
342.0, 0.220631
348.0, 0.121766
354.0, 0.105402
360.0, 0.129332
366.0, 0.141199
372.0, 0.075816
378.0, 0.0133069
384.0, 0.00312611
390.0, 0.00237631
396.0, 0.00330758
402.0, 0.00188997
408.0, 0.00198814
414.0, 0.00399427
420.0, 0.00649332
426.0, 0.00973454
432.0, 0.0118659
438.0, 0.0132271
444.0, 0.0129469
450.0, 0.0119424
456.0, 0.00724965
462.0, 0.00830864
468.0, 0.0062089
474.0, 0.00866398
480.0, 0.00648146
486.0, 0.00605255
492.0, 0.00548696
498.0, 0.00235914
504.0, 0.00346299
510.0, 0.00193326
516.0, 0.000207051
522.0, 0.000144898
528.0, 0.00022241
534.0, 0.000760552
540.0, 5.85982e-05
546.0, 0.000480889
552.0, 0.00152476
558.0, 0.000811734
564.0, 0.000747218
570.0, 0.00111033
576.0, 0.00205882
582.0, 0.00140015
588.0, 0.00115037
594.0, 0.00357682
600.0, 0.00377379
606.0, 0.00546317
612.0, 0.00822196
618.0, 0.00695366
624.0, 0.00990601
630.0, 0.0103564
636.0, 0.0112443
642.0, 0.0119068
648.0, 0.0129279
654.0, 0.0163756
660.0, 0.0200418
666.0, 0.0165748
672.0, 0.00939189
678.0, 0.00627034
684.0, 0.00490654
690.0, 0.00205939
696.0, 0.000865527
702.0, 0.000304806
708.0, 0.000693387
714.0, 0.00147378
720.0, 0.00374292
726.0, 0.00387377
732.0, 0.00483862
738.0, 0.00322323
744.0, 0.00328961
750.0, 0.00156025
756.0, 0.000771022
762.0, 0.000669333
768.0, 0.00143742
774.0, 0.00130101
780.0, 0.0026423
786.0, 0.00137618
792.0, 0.00204652
798.0, 0.00272242
804.0, 0.00174703
810.0, 0.00315839
816.0, 0.00277707
822.0, 0.00364354
828.0, 0.00189954
834.0, 0.00149653
840.0, 0.00196874
846.0, 0.000357821
852.0, 0.00138743
858.0, 0.000934703
864.0, 0.000920475
870.0, 0.00109837
876.0, 0.00140119
882.0, 0.000715027
888.0, 0.000964139
894.0, 0.000626668
900.0, 0.000317722
906.0, 0.00117982
912.0, 0.000455801
918.0, 0.000778354
924.0, 0.000884224
930.0, 0.00177382
936.0, 0.00119294
942.0, 0.00145396
948.0, 0.000506828
954.0, 0.00149562
960.0, 0.00117289
966.0, 0.00013014
972.0, 0.000227326
978.0, 0.000481724
984.0, 0.000116269
990.0, 0.000870725
996.0, 0.00015045
1002.0, 0.000734658
1008.0, 0.00104525
1014.0, 0.00232176
1020.0, 0.0018802
1026.0, 0.000801248
1032.0, 0.00195089
1038.0, 0.00154773
1044.0, 0.0016586
1050.0, 0.000564771
1056.0, 0.000938279
1062.0, 0.00106787
1068.0, 0.00170608
1074.0, 0.00148879
1080.0, 0.000949397
1086.0, 0.000236177
1092.0, 0.000660721
1098.0, 0.000289639
1104.0, 0.000963059
1110.0, 0.000168972
1116.0, 0.00100621
1122.0, 0.00136782
1128.0, 0.00167711
1134.0, 0.00262463
1140.0, 0.000567744
1146.0, 0.00230382
1152.0, 0.00197937
1158.0, 0.00191317
1164.0, 0.00283548
1170.0, 0.00242504
1176.0, 0.00366034
1182.0, 0.00205886
1188.0, 0.0015255
1194.0, 0.00215144
1200.0, 0.00253492
1206.0, 0.00180981
1212.0, 0.0015292
1218.0, 0.0028059
1224.0, 0.0028144
1230.0, 0.000646419
1236.0, 0.000915481
1242.0, 3.89458e-05
1248.0, 0.000446445
1254.0, 0.000419434
1260.0, 0.000866334
1266.0, 0.0013596
1272.0, 0.00149307
1278.0, 0.00156791
1284.0, 0.00039742
1290, 0.0
1296, 0.0
1302, 0.0
1308, 0.0
1314, 0.0
1320, 0.0
1326, 0.0
1332, 0.0
1338, 0.0
1344, 0.0
1350, 0.0
1356, 0.0
1362, 0.0
1368, 0.0
1374, 0.0
1380, 0.0
1386, 0.0
1392, 0.0
1398, 0.0
1404, 0.0
1410, 0.0
1416, 0.0
1422, 0.0
1428, 0.0
1434, 0.0
1440, 0.0
1446, 0.0
1452, 0.0
1458, 0.0
1464, 0.0
1470, 0.0
1476, 0.0
1482, 0.0
1488, 0.0
1494, 0.0
1500, 0.0
1506, 0.0
1512, 0.0
1518, 0.0
1524, 0.0
1530, 0.0
1536, 0.0
1542, 0.0
1548, 0.0
1554, 0.0
1560, 0.0
1566, 0.0
1572, 0.0
1578, 0.0
1584, 0.0
1590, 0.0
1596, 0.0
1599, 0.0