Folder: 1D_CNN_For_Mineral_Classification/raw data/Dataset_2/Ferroactinolite (part 2)

File: Ferroactinolite__R060189-4__Raman__514__90__ccw__Raman_Data_Processed__13260.txt
30, 0.0
36, 0.0
42, 0.0
48, 0.0
54, 0.0
60, 0.0
66, 0.0
72, 0.0
78, 0.0
84, 0.0
90, 0.0
96.0, 0.000329553
102.0, 0.0011602
108.0, 0.065134
114.0, 0.0342375
120.0, 0.0301565
126.0, 0.0374797
132.0, 0.0676578
138.0, 0.0869641
144.0, 0.309135
150.0, 0.284492
156.0, 0.0831536
162.0, 0.0626896
168.0, 0.174509
174.0, 0.223437
180.0, 0.092541
186.0, 0.0631393
192.0, 0.0985113
198.0, 0.143639
204.0, 0.212615
210.0, 0.253609
216.0, 0.319189
222.0, 0.256433
228.0, 0.161276
234.0, 0.109875
240.0, 0.0791553
246.0, 0.0588176
252.0, 0.0314943
258.0, 0.0209824
264.0, 0.0108203
270.0, 0.00579735
276.0, 0.00957318
282.0, 0.0109977
288.0, 0.0115799
294.0, 0.0161005
300.0, 0.0135212
306.0, 0.0137964
312.0, 0.0200626
318.0, 0.0228605
324.0, 0.0414052
330.0, 0.0576796
336.0, 0.0679554
342.0, 0.0735514
348.0, 0.087768
354.0, 0.107945
360.0, 0.10676
366.0, 0.0884807
372.0, 0.0962567
378.0, 0.124687
384.0, 0.128966
390.0, 0.099573
396.0, 0.0768392
402.0, 0.0514329
408.0, 0.0306749
414.0, 0.021955
420.0, 0.0145564
426.0, 0.033587
432.0, 0.0480345
438.0, 0.0106843
444.0, 0.00539594
450.0, 0.00658277
456.0, 0.00756874
462.0, 0.00658398
468.0, 0.00163607
474.0, 0.000599429
480.0, 0.00267158
486.0, 0.0116874
492.0, 0.0217427
498.0, 0.0320608
504.0, 0.047036
510.0, 0.0639651
516.0, 0.0804093
522.0, 0.095896
528.0, 0.0865364
534.0, 0.0818896
540.0, 0.0659654
546.0, 0.0557052
552.0, 0.0538039
558.0, 0.0464976
564.0, 0.0475636
570.0, 0.0421399
576.0, 0.0340434
582.0, 0.0176853
588.0, 0.0122518
594.0, 0.00741545
600.0, 0.00878188
606.0, 0.0115675
612.0, 0.00852985
618.0, 0.0183841
624.0, 0.034923
630.0, 0.0512967
636.0, 0.0899504
642.0, 0.126077
648.0, 0.191665
654.0, 0.350429
660.0, 0.721133
666.0, 0.981583
672.0, 0.576835
678.0, 0.27024
684.0, 0.149296
690.0, 0.0893363
696.0, 0.0530253
702.0, 0.0386752
708.0, 0.0321491
714.0, 0.0255621
720.0, 0.0223806
726.0, 0.0307267
732.0, 0.0291841
738.0, 0.0293817
744.0, 0.0283697
750.0, 0.0158057
756.0, 0.0170816
762.0, 0.0140093
768.0, 0.00621694
774.0, 0.00305548
780.0, 0.0113471
786.0, 0.00743942
792.0, 0.00195095
798.0, 0.00216998
804.0, 0.000672259
810.0, 0.00389173
816.0, 0.00410851
822.0, 0.00263635
828.0, 0.00337787
834.0, 0.0021936
840.0, 0.0025277
846.0, 0.00242226
852.0, 0.0116106
858.0, 0.00901524
864.0, 0.0161521
870.0, 0.0223527
876.0, 0.0228101
882.0, 0.0272434
888.0, 0.0369502
894.0, 0.0556933
900.0, 0.0653095
906.0, 0.0707234
912.0, 0.0848369
918.0, 0.104503
924.0, 0.124347
930.0, 0.102339
936.0, 0.0821005
942.0, 0.0704486
948.0, 0.0739614
954.0, 0.0799719
960.0, 0.0744158
966.0, 0.0775071
972.0, 0.0708386
978.0, 0.0690156
984.0, 0.064882
990.0, 0.0635556
996.0, 0.0805192
1002.0, 0.105126
1008.0, 0.126092
1014.0, 0.160626
1020.0, 0.193243
1026.0, 0.189641
1032.0, 0.171321
1038.0, 0.21807
1044.0, 0.282237
1050.0, 0.266259
1056.0, 0.241192
1062.0, 0.201928
1068.0, 0.114854
1074.0, 0.0627558
1080.0, 0.0514293
1086.0, 0.0353128
1092.0, 0.0353639
1098.0, 0.0240566
1104.0, 0.0245395
1110.0, 0.0180709
1116.0, 0.0118075
1122.0, 0.0291444
1128.0, 0.019723
1134.0, 0.00686079
1140.0, 0.00837924
1146.0, 0.00119933
1152.0, 0.00111659
1158.0, 0.00882461
1164.0, 0.00484359
1170.0, 0.00702287
1176.0, 0.0033262
1182.0, 0.00223757
1188.0, 0.0010989
1194.0, 0.00467092
1200.0, 0.00589968
1206.0, 0.00466625
1212.0, 0.000439046
1218.0, 0.00366695
1224.0, 0.00199461
1230.0, 0.00693563
1236.0, 0.0131271
1242.0, 0.0076672
1248.0, 0.00548784
1254.0, 0.0119912
1260.0, 0.0114389
1266.0, 0.0163235
1272.0, 0.0110515
1278.0, 0.0106524
1284.0, 0.0224633
1290.0, 0.0153345
1296.0, 0.0215583
1302.0, 0.0214075
1308.0, 0.0257729
1314.0, 0.0233517
1320.0, 0.0181402
1326.0, 0.022156
1332.0, 0.0212898
1338.0, 0.024895
1344.0, 0.0248685
1350.0, 0.0246839
1356.0, 0.0178374
1362.0, 0.0230361
1368.0, 0.0197409
1374.0, 0.0203896
1380.0, 0.022647
1386.0, 0.0131449
1392.0, 0.0147802
1398.0, 0.00976399
1404.0, 0.0185205
1410.0, 0.0106052
1416.0, 0.0073788
1422.0, 0.00503051
1428.0, 0.00344972
1434.0, 0.000576388
1440.0, 0.00352785
1446.0, 0.00253864
1452.0, 0.000915243
1458.0, 0.00240473
1464.0, 0.000730559
1470.0, 0.00272706
1476.0, 0.00623304
1482.0, 0.00676535
1488.0, 0.00877633
1494.0, 0.0117309
1500.0, 0.00911041
1506.0, 0.00807857
1512.0, 0.0125222
1518.0, 0.0132068
1524.0, 0.00503229
1530.0, 0.01528
1536.0, 0.0150229
1542.0, 0.0174385
1548.0, 0.0160043
1554.0, 0.0224992
1560.0, 0.00638611
1566.0, 0.00628269
1572, 0.0
1578, 0.0
1584, 0.0
1590, 0.0
1596, 0.0
1599, 0.0

File: Ferroactinolite__R060189__Raman__532__0__unoriented__Raman_Data_Processed__33235.txt
30, 0.0
36, 0.0
42, 0.0
48, 0.0
54, 0.0
60, 0.0
66, 0.0
72, 0.0
78, 0.0
84, 0.0
90, 0.0
96, 0.0
102, 0.0
108, 0.0
114, 0.0
120, 0.0
126, 0.0
132, 0.0
138, 0.0
144, 0.0
150.0, 0.0856749
156.0, 0.00135846
162.0, 0.0139655
168.0, 0.119643
174.0, 0.230066
180.0, 0.0351321
186.0, 0.00468023
192.0, 0.01646
198.0, 0.0694118
204.0, 0.141776
210.0, 0.241892
216.0, 0.318698
222.0, 0.294337
228.0, 0.172809
234.0, 0.0926821
240.0, 0.0571645
246.0, 0.0237328
252.0, 0.00837885
258.0, 0.00320552
264.0, 0.000784834
270.0, 0.00135107
276.0, 0.00284689
282.0, 0.0030438
288.0, 0.00692114
294.0, 0.00646984
300.0, 0.00292503
306.0, 0.000213502
312.0, 0.0059204
318.0, 0.011129
324.0, 0.0297726
330.0, 0.0492008
336.0, 0.0562383
342.0, 0.0640819
348.0, 0.0799573
354.0, 0.092068
360.0, 0.0913705
366.0, 0.0709757
372.0, 0.0659191
378.0, 0.0871693
384.0, 0.0920541
390.0, 0.0734338
396.0, 0.0532413
402.0, 0.0391855
408.0, 0.0247615
414.0, 0.0134958
420.0, 0.00838088
426.0, 0.0170843
432.0, 0.0324524
438.0, 0.0138009
444.0, 0.0029659
450.0, 0.00260108
456.0, 0.000192538
462.0, 0.00202197
468.0, 0.00591909
474.0, 0.00987388
480.0, 0.0113683
486.0, 0.0173484
492.0, 0.02154
498.0, 0.0361276
504.0, 0.0455516
510.0, 0.0499722
516.0, 0.0591487
522.0, 0.071121
528.0, 0.0597278
534.0, 0.0425307
540.0, 0.0341015
546.0, 0.0297442
552.0, 0.0232989
558.0, 0.0229265
564.0, 0.0175013
570.0, 0.0118128
576.0, 0.00386599
582.0, 0.00145546
588.0, 0.00204663
594.0, 0.002053
600.0, 0.000184251
606.0, 0.00406177
612.0, 0.00853196
618.0, 0.0184306
624.0, 0.0353434
630.0, 0.0610878
636.0, 0.0939142
642.0, 0.135469
648.0, 0.209605
654.0, 0.399761
660.0, 0.73084
666.0, 0.999984
672.0, 0.576933
678.0, 0.215538
684.0, 0.107947
690.0, 0.0530235
696.0, 0.0230766
702.0, 0.00649115
708.0, 0.00285233
714.0, 0.00185485
720.0, 0.00205417
726.0, 0.00500247
732.0, 0.0157677
738.0, 0.0217904
744.0, 0.0191526
750.0, 0.0102908
756.0, 0.00350775
762.0, 0.00352593
768.0, 0.00318815
774.0, 0.00246259
780.0, 0.00310065
786.0, 0.000806991
792.0, 0.000122351
798.0, 0.000971531
804.0, 0.00201406
810.0, 0.00151725
816.0, 0.00176465
822.0, 0.00367019
828.0, 0.00403104
834.0, 0.00559244
840.0, 0.00454481
846.0, 0.00166169
852.0, 0.00281631
858.0, 0.000746381
864.0, 0.000557013
870.0, 0.000348053
876.0, 0.000537137
882.0, 0.002011
888.0, 0.00561506
894.0, 0.00967958
900.0, 0.0129383
906.0, 0.0205506
912.0, 0.028726
918.0, 0.0523659
924.0, 0.0785823
930.0, 0.0677841
936.0, 0.0419332
942.0, 0.031443
948.0, 0.0176505
954.0, 0.0116112
960.0, 0.0060536
966.0, 0.00310213
972.0, 0.00356949
978.0, 0.00022037
984.0, 0.000257485
990.0, 0.00439857
996.0, 0.0144883
1002.0, 0.0316076
1008.0, 0.0558511
1014.0, 0.0834357
1020.0, 0.105042
1026.0, 0.122339
1032.0, 0.117373
1038.0, 0.160873
1044.0, 0.233151
1050.0, 0.246922
1056.0, 0.190896
1062.0, 0.179105
1068.0, 0.0911721
1074.0, 0.0346015
1080.0, 0.0132501
1086.0, 0.00548156
1092.0, 0.00386775
1098.0, 0.000734041
1104.0, 0.00338347
1110.0, 0.00285377
1116.0, 0.00107267
1122.0, 0.00218105
1128.0, 0.00261827
1134.0, 0.00163783
1140.0, 0.00132489
1146.0, 0.00186364
1152.0, 0.00145383
1158.0, 0.000175141
1164.0, 0.00229094
1170.0, 0.00251001
1176.0, 0.00176966
1182.0, 0.00506627
1188.0, 0.00385542
1194.0, 0.00653541
1200.0, 0.00365842
1206.0, 0.00509907
1212.0, 0.00127735
1218.0, 0.00165339
1224.0, 0.00487624
1230.0, 0.0022276
1236.0, 0.002935
1242.0, 0.00341005
1248.0, 0.00364726
1254.0, 0.00127148
1260.0, 0.00280988
1266.0, 0.00314122
1272.0, 0.00284847
1278.0, 0.00238865
1284.0, 0.00230521
1290.0, 0.00200568
1296.0, 0.00361866
1302.0, 0.00413708
1308, 0.0
1314, 0.0
1320, 0.0
1326, 0.0
1332, 0.0
1338, 0.0
1344, 0.0
1350, 0.0
1356, 0.0
1362, 0.0
1368, 0.0
1374, 0.0
1380, 0.0
1386, 0.0
1392, 0.0
1398, 0.0
1404, 0.0
1410, 0.0
1416, 0.0
1422, 0.0
1428, 0.0
1434, 0.0
1440, 0.0
1446, 0.0
1452, 0.0
1458, 0.0
1464, 0.0
1470, 0.0
1476, 0.0
1482, 0.0
1488, 0.0
1494, 0.0
1500, 0.0
1506, 0.0
1512, 0.0
1518, 0.0
1524, 0.0
1530, 0.0
1536, 0.0
1542, 0.0
1548, 0.0
1554, 0.0
1560, 0.0
1566, 0.0
1572, 0.0
1578, 0.0
1584, 0.0
1590, 0.0
1596, 0.0
1599, 0.0