Folder: 1D_CNN_For_Mineral_Classification/raw data/Dataset_2/GlassSm

File: GlassSm__R110078__Raman__532__0__unoriented__Raman_Data_Processed__35491.txt
30, 0.0
36, 0.0
42, 0.0
48, 0.0
54, 0.0
60, 0.0
66, 0.0
72, 0.0
78, 0.0
84, 0.0
90, 0.0
96, 0.0
102, 0.0
108, 0.0
114, 0.0
120, 0.0
126, 0.0
132, 0.0
138, 0.0
144, 0.0
150, 0.0
156, 0.0
162, 0.0
168, 0.0
174, 0.0
180, 0.0
186, 0.0
192.0, 0.00223097
198.0, 0.0054738
204.0, 0.00596857
210.0, 0.00637655
216.0, 0.00638376
222.0, 0.0053864
228.0, 0.00623489
234.0, 0.00393657
240.0, 0.00441015
246.0, 0.00350296
252.0, 0.00386084
258.0, 0.0030429
264.0, 0.00349608
270.0, 0.00210195
276.0, 0.00457015
282.0, 0.00188959
288.0, 0.000465012
294.0, 0.00211977
300.0, 0.00250884
306.0, 0.00373465
312.0, 0.00199523
318.0, 0.00311166
324.0, 0.00221929
330.0, 0.00399802
336.0, 0.00235099
342.0, 0.00334426
348.0, 0.0021886
354.0, 0.00477187
360.0, 0.00177473
366.0, 0.0040838
372.0, 0.00418143
378.0, 0.00396014
384.0, 0.00231698
390.0, 0.00303653
396.0, 0.00330102
402.0, 0.0035299
408.0, 0.00351915
414.0, 0.00544669
420.0, 0.00390715
426.0, 0.00362846
432.0, 0.00435552
438.0, 0.00411964
444.0, 0.0045203
450.0, 0.00586963
456.0, 0.00547494
462.0, 0.00546967
468.0, 0.00588988
474.0, 0.00674952
480.0, 0.00714119
486.0, 0.00874902
492.0, 0.00717964
498.0, 0.0067517
504.0, 0.00748956
510.0, 0.00675414
516.0, 0.00598313
522.0, 0.00755406
528.0, 0.00620889
534.0, 0.00544343
540.0, 0.00396437
546.0, 0.00517671
552.0, 0.00242017
558.0, 0.00361156
564.0, 0.0036139
570.0, 0.00337406
576.0, 0.00368102
582.0, 0.00416544
588.0, 0.00129244
594.0, 0.0020606
600.0, 0.00280621
606.0, 0.00179907
612.0, 0.00061786
618.0, 0.00281111
624.0, 0.00356319
630.0, 0.0055191
636.0, 0.00610591
642.0, 0.00883331
648.0, 0.00899786
654.0, 0.012263
660.0, 0.0141814
666.0, 0.0165156
672.0, 0.0171852
678.0, 0.0193865
684.0, 0.022093
690.0, 0.0234108
696.0, 0.0262218
702.0, 0.027617
708.0, 0.02932
714.0, 0.0329902
720.0, 0.0351887
726.0, 0.0382165
732.0, 0.0418615
738.0, 0.044723
744.0, 0.0470477
750.0, 0.0493681
756.0, 0.0531903
762.0, 0.0542751
768.0, 0.0587846
774.0, 0.0603903
780.0, 0.0641625
786.0, 0.0660539
792.0, 0.0682757
798.0, 0.0711794
804.0, 0.0713841
810.0, 0.074844
816.0, 0.0784529
822.0, 0.0825717
828.0, 0.0842166
834.0, 0.0888985
840.0, 0.0953096
846.0, 0.102531
852.0, 0.10919
858.0, 0.115166
864.0, 0.123616
870.0, 0.133087
876.0, 0.142376
882.0, 0.15131
888.0, 0.163679
894.0, 0.172608
900.0, 0.18456
906.0, 0.197039
912.0, 0.210258
918.0, 0.224055
924.0, 0.241461
930.0, 0.258051
936.0, 0.273594
942.0, 0.296842
948.0, 0.32562
954.0, 0.355354
960.0, 0.387874
966.0, 0.430098
972.0, 0.47348
978.0, 0.524079
984.0, 0.579482
990.0, 0.639414
996.0, 0.698942
1002.0, 0.758999
1008.0, 0.817078
1014.0, 0.866897
1020.0, 0.918107
1026.0, 0.953211
1032.0, 0.979001
1038.0, 0.997404
1044.0, 0.99939
1050.0, 0.99632
1056.0, 0.982647
1062.0, 0.960121
1068.0, 0.926781
1074.0, 0.889286
1080.0, 0.853758
1086.0, 0.813891
1092.0, 0.768421
1098.0, 0.726408
1104.0, 0.682157
1110.0, 0.644485
1116.0, 0.604884
1122.0, 0.571465
1128.0, 0.540321
1134.0, 0.510929
1140.0, 0.491758
1146.0, 0.473265
1152.0, 0.457788
1158.0, 0.44438
1164.0, 0.435561
1170.0, 0.428875
1176.0, 0.426273
1182.0, 0.426729
1188.0, 0.423299
1194.0, 0.427157
1200.0, 0.429658
1206.0, 0.434607
1212.0, 0.437836
1218.0, 0.436134
1224.0, 0.442561
1230.0, 0.444575
1236.0, 0.442889
1242.0, 0.444659
1248.0, 0.442635
1254.0, 0.440727
1260.0, 0.436882
1266.0, 0.430221
1272.0, 0.423901
1278.0, 0.415327
1284.0, 0.406592
1290.0, 0.397701
1296.0, 0.388361
1302.0, 0.374832
1308, 0.0
1314, 0.0
1320, 0.0
1326, 0.0
1332, 0.0
1338, 0.0
1344, 0.0
1350, 0.0
1356, 0.0
1362, 0.0
1368, 0.0
1374, 0.0
1380, 0.0
1386, 0.0
1392, 0.0
1398, 0.0
1404, 0.0
1410, 0.0
1416, 0.0
1422, 0.0
1428, 0.0
1434, 0.0
1440, 0.0
1446, 0.0
1452, 0.0
1458, 0.0
1464, 0.0
1470, 0.0
1476, 0.0
1482, 0.0
1488, 0.0
1494, 0.0
1500, 0.0
1506, 0.0
1512, 0.0
1518, 0.0
1524, 0.0
1530, 0.0
1536, 0.0
1542, 0.0
1548, 0.0
1554, 0.0
1560, 0.0
1566, 0.0
1572, 0.0
1578, 0.0
1584, 0.0
1590, 0.0
1596, 0.0
1599, 0.0

File: GlassSm__R110078__Raman__780__0__unoriented__Raman_Data_Processed__35492.txt
30, 0.0
36, 0.0
42, 0.0
48, 0.0
54, 0.0
60, 0.0
66, 0.0
72, 0.0
78, 0.0
84, 0.0
90, 0.0
96.0, 0.998716
102.0, 0.946501
108.0, 0.93141
114.0, 0.915504
120.0, 0.89932
126.0, 0.88853
132.0, 0.865882
138.0, 0.855952
144.0, 0.842432
150.0, 0.823589
156.0, 0.819649
162.0, 0.805877
168.0, 0.792857
174.0, 0.78831
180.0, 0.778887
186.0, 0.767147
192.0, 0.760356
198.0, 0.751291
204.0, 0.744258
210.0, 0.738459
216.0, 0.731673
222.0, 0.725867
228.0, 0.718714
234.0, 0.716366
240.0, 0.710714
246.0, 0.708523
252.0, 0.697234
258.0, 0.693822
264.0, 0.690388
270.0, 0.689085
276.0, 0.68259
282.0, 0.67733
288.0, 0.6723
294.0, 0.668314
300.0, 0.66619
306.0, 0.663823
312.0, 0.66499
318.0, 0.662939
324.0, 0.655976
330.0, 0.658575
336.0, 0.65449
342.0, 0.650857
348.0, 0.654462
354.0, 0.650403
360.0, 0.651489
366.0, 0.642102
372.0, 0.638432
378.0, 0.633966
384.0, 0.634061
390.0, 0.630355
396.0, 0.626667
402.0, 0.628713
408.0, 0.615652
414.0, 0.619425
420.0, 0.621739
426.0, 0.621789
432.0, 0.621709
438.0, 0.623574
444.0, 0.620374
450.0, 0.620403
456.0, 0.619267
462.0, 0.621666
468.0, 0.620215
474.0, 0.613213
480.0, 0.607722
486.0, 0.608
492.0, 0.605082
498.0, 0.603429
504.0, 0.595172
510.0, 0.588036
516.0, 0.579282
522.0, 0.563079
528.0, 0.551196
534.0, 0.533377
540.0, 0.516543
546.0, 0.506501
552.0, 0.494675
558.0, 0.483276
564.0, 0.474464
570.0, 0.465174
576.0, 0.452254
582.0, 0.436006
588.0, 0.419069
594.0, 0.404385
600.0, 0.387993
606.0, 0.371508
612.0, 0.36013
618.0, 0.348172
624.0, 0.342168
630.0, 0.327947
636.0, 0.324343
642.0, 0.316858
648.0, 0.309352
654.0, 0.299858
660.0, 0.286916
666.0, 0.278231
672.0, 0.263843
678.0, 0.251517
684.0, 0.235721
690.0, 0.224533
696.0, 0.210491
702.0, 0.196895
708.0, 0.186195
714.0, 0.175493
720.0, 0.169409
726.0, 0.157826
732.0, 0.150373
738.0, 0.140417
744.0, 0.133735
750.0, 0.124377
756.0, 0.116287
762.0, 0.110641
768.0, 0.101732
774.0, 0.0961686
780.0, 0.084459
786.0, 0.080759
792.0, 0.0742745
798.0, 0.0640067
804.0, 0.053586
810.0, 0.0478571
816.0, 0.0415952
822.0, 0.0424275
828.0, 0.0414718
834.0, 0.0472428
840.0, 0.0516529
846.0, 0.0608044
852.0, 0.0768196
858.0, 0.0910736
864.0, 0.105081
870.0, 0.123578
876.0, 0.139798
882.0, 0.15591
888.0, 0.171711
894.0, 0.187519
900.0, 0.205389
906.0, 0.219812
912.0, 0.234311
918.0, 0.246182
924.0, 0.259498
930.0, 0.26946
936.0, 0.277291
942.0, 0.293408
948.0, 0.290719
954.0, 0.303314
960.0, 0.302657
966.0, 0.308895
972.0, 0.315425
978.0, 0.318578
984.0, 0.318264
990.0, 0.323982
996.0, 0.323986
1002.0, 0.322066
1008.0, 0.320874
1014.0, 0.314611
1020.0, 0.307272
1026.0, 0.301583
1032.0, 0.290236
1038.0, 0.276479
1044.0, 0.260725
1050.0, 0.245725
1056.0, 0.224727
1062.0, 0.211927
1068.0, 0.191431
1074.0, 0.169556
1080.0, 0.154984
1086.0, 0.132578
1092.0, 0.118631
1098.0, 0.0988222
1104.0, 0.0848471
1110.0, 0.0733701
1116.0, 0.061175
1122.0, 0.0566217
1128.0, 0.0471231
1134.0, 0.0386756
1140.0, 0.0377197
1146.0, 0.0309325
1152.0, 0.0270099
1158.0, 0.0212263
1164.0, 0.0209462
1170.0, 0.0177566
1176.0, 0.017101
1182.0, 0.0126766
1188.0, 0.0117352
1194.0, 0.0121685
1200.0, 0.00737777
1206.0, 0.00773171
1212.0, 0.00927436
1218.0, 0.00267383
1224.0, 0.000388798
1230.0, 0.0079319
1236.0, 0.000385292
1242.0, 0.00394606
1248.0, 0.0101528
1254.0, 0.0045775
1260.0, 0.00795788
1266.0, 0.00814403
1272.0, 0.0106204
1278.0, 0.0093431
1284.0, 0.00670462
1290, 0.0
1296, 0.0
1302, 0.0
1308, 0.0
1314, 0.0
1320, 0.0
1326, 0.0
1332, 0.0
1338, 0.0
1344, 0.0
1350, 0.0
1356, 0.0
1362, 0.0
1368, 0.0
1374, 0.0
1380, 0.0
1386, 0.0
1392, 0.0
1398, 0.0
1404, 0.0
1410, 0.0
1416, 0.0
1422, 0.0
1428, 0.0
1434, 0.0
1440, 0.0
1446, 0.0
1452, 0.0
1458, 0.0
1464, 0.0
1470, 0.0
1476, 0.0
1482, 0.0
1488, 0.0
1494, 0.0
1500, 0.0
1506, 0.0
1512, 0.0
1518, 0.0
1524, 0.0
1530, 0.0
1536, 0.0
1542, 0.0
1548, 0.0
1554, 0.0
1560, 0.0
1566, 0.0
1572, 0.0
1578, 0.0
1584, 0.0
1590, 0.0
1596, 0.0
1599, 0.0