Folder: 1D_CNN_For_Mineral_Classification/raw data/Dataset_2/GlassNd

File: GlassNd__R110077__Raman__532__0__unoriented__Raman_Data_Processed__35488.txt
30, 0.0
36, 0.0
42, 0.0
48, 0.0
54, 0.0
60, 0.0
66, 0.0
72, 0.0
78, 0.0
84, 0.0
90, 0.0
96, 0.0
102, 0.0
108, 0.0
114, 0.0
120, 0.0
126, 0.0
132, 0.0
138, 0.0
144, 0.0
150, 0.0
156, 0.0
162, 0.0
168, 0.0
174, 0.0
180, 0.0
186, 0.0
192.0, 0.98508
198.0, 0.993731
204.0, 0.993401
210.0, 0.98295
216.0, 0.973243
222.0, 0.963726
228.0, 0.948051
234.0, 0.934986
240.0, 0.920406
246.0, 0.906809
252.0, 0.89422
258.0, 0.882173
264.0, 0.864847
270.0, 0.852667
276.0, 0.847323
282.0, 0.826614
288.0, 0.807829
294.0, 0.799679
300.0, 0.787247
306.0, 0.777811
312.0, 0.758464
318.0, 0.751582
324.0, 0.734352
330.0, 0.719466
336.0, 0.712757
342.0, 0.696037
348.0, 0.679996
354.0, 0.669065
360.0, 0.658172
366.0, 0.64288
372.0, 0.628752
378.0, 0.6133
384.0, 0.602655
390.0, 0.586748
396.0, 0.573437
402.0, 0.557216
408.0, 0.543815
414.0, 0.536325
420.0, 0.521297
426.0, 0.508474
432.0, 0.497813
438.0, 0.486131
444.0, 0.480932
450.0, 0.467285
456.0, 0.45394
462.0, 0.444989
468.0, 0.431832
474.0, 0.416765
480.0, 0.408016
486.0, 0.396486
492.0, 0.385114
498.0, 0.373245
504.0, 0.364773
510.0, 0.34874
516.0, 0.337106
522.0, 0.316185
528.0, 0.308973
534.0, 0.287713
540.0, 0.275478
546.0, 0.262594
552.0, 0.250048
558.0, 0.238481
564.0, 0.230805
570.0, 0.221266
576.0, 0.214558
582.0, 0.205331
588.0, 0.195707
594.0, 0.188631
600.0, 0.178289
606.0, 0.165705
612.0, 0.158051
618.0, 0.150271
624.0, 0.139667
630.0, 0.13423
636.0, 0.13067
642.0, 0.121104
648.0, 0.117652
654.0, 0.112212
660.0, 0.106963
666.0, 0.100728
672.0, 0.0939643
678.0, 0.0882571
684.0, 0.082413
690.0, 0.0783065
696.0, 0.0710913
702.0, 0.0664378
708.0, 0.0615229
714.0, 0.0568193
720.0, 0.0526987
726.0, 0.0495889
732.0, 0.0476255
738.0, 0.045165
744.0, 0.0420077
750.0, 0.039348
756.0, 0.039795
762.0, 0.037584
768.0, 0.0350392
774.0, 0.0347005
780.0, 0.0321454
786.0, 0.0290497
792.0, 0.0266391
798.0, 0.0229083
804.0, 0.0209418
810.0, 0.0177173
816.0, 0.0176479
822.0, 0.0128202
828.0, 0.00972078
834.0, 0.00844068
840.0, 0.00789077
846.0, 0.0109632
852.0, 0.0122468
858.0, 0.0182842
864.0, 0.0236285
870.0, 0.0310635
876.0, 0.0377634
882.0, 0.0418675
888.0, 0.049621
894.0, 0.057896
900.0, 0.0643662
906.0, 0.0737261
912.0, 0.0790834
918.0, 0.0879669
924.0, 0.0947017
930.0, 0.102641
936.0, 0.106233
942.0, 0.110033
948.0, 0.113961
954.0, 0.119263
960.0, 0.125019
966.0, 0.129183
972.0, 0.131897
978.0, 0.132841
984.0, 0.136808
990.0, 0.139336
996.0, 0.141792
1002.0, 0.142708
1008.0, 0.14444
1014.0, 0.143562
1020.0, 0.143378
1026.0, 0.138494
1032.0, 0.137339
1038.0, 0.131777
1044.0, 0.125241
1050.0, 0.120108
1056.0, 0.111419
1062.0, 0.100718
1068.0, 0.0899264
1074.0, 0.0798671
1080.0, 0.0684608
1086.0, 0.0595669
1092.0, 0.0516148
1098.0, 0.0443725
1104.0, 0.0361649
1110.0, 0.0309412
1116.0, 0.0256806
1122.0, 0.0212957
1128.0, 0.0168701
1134.0, 0.0119626
1140.0, 0.0111418
1146.0, 0.0082826
1152.0, 0.00590218
1158.0, 0.00327
1164.0, 0.0023909
1170.0, 0.00258038
1176.0, 0.00209897
1182.0, 0.00142429
1188.0, 0.00291434
1194.0, 0.000690527
1200.0, 0.00406387
1206.0, 0.00337407
1212.0, 0.00462204
1218.0, 0.00642102
1224.0, 0.00909699
1230.0, 0.0100301
1236.0, 0.0131183
1242.0, 0.0147418
1248.0, 0.0194026
1254.0, 0.0218435
1260.0, 0.027981
1266.0, 0.0307097
1272.0, 0.0339838
1278.0, 0.0397911
1284.0, 0.0419815
1290.0, 0.0454227
1296.0, 0.0497996
1302.0, 0.0524627
1308, 0.0
1314, 0.0
1320, 0.0
1326, 0.0
1332, 0.0
1338, 0.0
1344, 0.0
1350, 0.0
1356, 0.0
1362, 0.0
1368, 0.0
1374, 0.0
1380, 0.0
1386, 0.0
1392, 0.0
1398, 0.0
1404, 0.0
1410, 0.0
1416, 0.0
1422, 0.0
1428, 0.0
1434, 0.0
1440, 0.0
1446, 0.0
1452, 0.0
1458, 0.0
1464, 0.0
1470, 0.0
1476, 0.0
1482, 0.0
1488, 0.0
1494, 0.0
1500, 0.0
1506, 0.0
1512, 0.0
1518, 0.0
1524, 0.0
1530, 0.0
1536, 0.0
1542, 0.0
1548, 0.0
1554, 0.0
1560, 0.0
1566, 0.0
1572, 0.0
1578, 0.0
1584, 0.0
1590, 0.0
1596, 0.0
1599, 0.0

File: GlassNd__R110077__Raman__780__0__unoriented__Raman_Data_Processed__35490.txt
30, 0.0
36, 0.0
42, 0.0
48, 0.0
54, 0.0
60, 0.0
66, 0.0
72, 0.0
78, 0.0
84, 0.0
90, 0.0
96.0, 0.000875243
102.0, 0.000135077
108.0, 0.00084535
114.0, 0.00222492
120.0, 0.00339308
126.0, 0.00492358
132.0, 0.00655845
138.0, 0.00803224
144.0, 0.00978171
150.0, 0.0116603
156.0, 0.0134223
162.0, 0.015498
168.0, 0.0174042
174.0, 0.0193281
180.0, 0.0215623
186.0, 0.0238498
192.0, 0.0258085
198.0, 0.0276771
204.0, 0.0298735
210.0, 0.0318538
216.0, 0.0342461
222.0, 0.0361209
228.0, 0.038184
234.0, 0.0403641
240.0, 0.0424583
246.0, 0.0445192
252.0, 0.0464114
258.0, 0.0484201
264.0, 0.0504017
270.0, 0.052585
276.0, 0.054424
282.0, 0.0565345
288.0, 0.0584532
294.0, 0.0603394
300.0, 0.0624187
306.0, 0.0644149
312.0, 0.0669309
318.0, 0.0692104
324.0, 0.0720471
330.0, 0.0755493
336.0, 0.0791091
342.0, 0.0831801
348.0, 0.0879833
354.0, 0.0934552
360.0, 0.0993184
366.0, 0.105915
372.0, 0.112763
378.0, 0.119663
384.0, 0.126623
390.0, 0.133204
396.0, 0.139625
402.0, 0.145729
408.0, 0.150794
414.0, 0.155667
420.0, 0.159441
426.0, 0.161889
432.0, 0.164144
438.0, 0.16512
444.0, 0.165329
450.0, 0.165197
456.0, 0.163999
462.0, 0.16289
468.0, 0.161014
474.0, 0.15962
480.0, 0.157199
486.0, 0.155303
492.0, 0.153677
498.0, 0.152365
504.0, 0.150689
510.0, 0.149421
516.0, 0.147957
522.0, 0.146703
528.0, 0.145052
534.0, 0.14374
540.0, 0.142517
546.0, 0.140935
552.0, 0.140094
558.0, 0.138577
564.0, 0.137496
570.0, 0.136052
576.0, 0.134736
582.0, 0.133234
588.0, 0.131458
594.0, 0.130404
600.0, 0.128691
606.0, 0.127443
612.0, 0.125932
618.0, 0.124139
624.0, 0.122821
630.0, 0.12136
636.0, 0.119724
642.0, 0.117978
648.0, 0.116479
654.0, 0.114826
660.0, 0.11308
666.0, 0.111007
672.0, 0.10921
678.0, 0.107436
684.0, 0.105222
690.0, 0.103507
696.0, 0.10169
702.0, 0.100106
708.0, 0.0982153
714.0, 0.0966196
720.0, 0.0943315
726.0, 0.092756
732.0, 0.0908041
738.0, 0.0889591
744.0, 0.0865748
750.0, 0.0850297
756.0, 0.0829961
762.0, 0.0808098
768.0, 0.0787162
774.0, 0.0764928
780.0, 0.0748162
786.0, 0.0725006
792.0, 0.0705824
798.0, 0.0684087
804.0, 0.0656745
810.0, 0.0639375
816.0, 0.0617037
822.0, 0.059631
828.0, 0.0578129
834.0, 0.0553403
840.0, 0.0535342
846.0, 0.0518461
852.0, 0.0498656
858.0, 0.0483735
864.0, 0.0468745
870.0, 0.0454153
876.0, 0.0443732
882.0, 0.0431986
888.0, 0.0422321
894.0, 0.0417534
900.0, 0.0411056
906.0, 0.0410292
912.0, 0.0408159
918.0, 0.0410973
924.0, 0.0409503
930.0, 0.0413248
936.0, 0.041547
942.0, 0.0422363
948.0, 0.0430323
954.0, 0.0438951
960.0, 0.0451685
966.0, 0.0463585
972.0, 0.0477
978.0, 0.0490505
984.0, 0.0511193
990.0, 0.0534356
996.0, 0.0557876
1002.0, 0.0590124
1008.0, 0.062741
1014.0, 0.0668533
1020.0, 0.0714788
1026.0, 0.0767892
1032.0, 0.0825473
1038.0, 0.0895045
1044.0, 0.0960187
1050.0, 0.103834
1056.0, 0.113223
1062.0, 0.122559
1068.0, 0.133569
1074.0, 0.146235
1080.0, 0.159307
1086.0, 0.173921
1092.0, 0.190545
1098.0, 0.207291
1104.0, 0.225112
1110.0, 0.24405
1116.0, 0.263905
1122.0, 0.284741
1128.0, 0.30816
1134.0, 0.332643
1140.0, 0.357181
1146.0, 0.383885
1152.0, 0.411359
1158.0, 0.439959
1164.0, 0.470738
1170.0, 0.500745
1176.0, 0.53116
1182.0, 0.560134
1188.0, 0.590631
1194.0, 0.620319
1200.0, 0.648855
1206.0, 0.677078
1212.0, 0.705045
1218.0, 0.732444
1224.0, 0.757365
1230.0, 0.78281
1236.0, 0.807899
1242.0, 0.826365
1248.0, 0.849341
1254.0, 0.868037
1260.0, 0.893175
1266.0, 0.915502
1272.0, 0.938299
1278.0, 0.965182
1284.0, 0.994315
1290, 0.0
1296, 0.0
1302, 0.0
1308, 0.0
1314, 0.0
1320, 0.0
1326, 0.0
1332, 0.0
1338, 0.0
1344, 0.0
1350, 0.0
1356, 0.0
1362, 0.0
1368, 0.0
1374, 0.0
1380, 0.0
1386, 0.0
1392, 0.0
1398, 0.0
1404, 0.0
1410, 0.0
1416, 0.0
1422, 0.0
1428, 0.0
1434, 0.0
1440, 0.0
1446, 0.0
1452, 0.0
1458, 0.0
1464, 0.0
1470, 0.0
1476, 0.0
1482, 0.0
1488, 0.0
1494, 0.0
1500, 0.0
1506, 0.0
1512, 0.0
1518, 0.0
1524, 0.0
1530, 0.0
1536, 0.0
1542, 0.0
1548, 0.0
1554, 0.0
1560, 0.0
1566, 0.0
1572, 0.0
1578, 0.0
1584, 0.0
1590, 0.0
1596, 0.0
1599, 0.0