Folder: 1D_CNN_For_Mineral_Classification/raw data/Dataset_2/GlassDy

File: GlassDy__R110082__Raman__532__0__unoriented__Raman_Data_Processed__35503.txt
30, 0.0
36, 0.0
42, 0.0
48, 0.0
54, 0.0
60, 0.0
66, 0.0
72, 0.0
78, 0.0
84, 0.0
90, 0.0
96, 0.0
102, 0.0
108, 0.0
114, 0.0
120, 0.0
126, 0.0
132, 0.0
138, 0.0
144, 0.0
150, 0.0
156, 0.0
162, 0.0
168, 0.0
174, 0.0
180, 0.0
186, 0.0
192, 0.0
198.0, 0.98681
204.0, 0.997604
210.0, 0.986011
216.0, 0.983502
222.0, 0.979655
228.0, 0.976991
234.0, 0.972104
240.0, 0.961517
246.0, 0.952561
252.0, 0.956417
258.0, 0.950565
264.0, 0.951724
270.0, 0.947085
276.0, 0.952295
282.0, 0.945358
288.0, 0.940364
294.0, 0.947161
300.0, 0.949628
306.0, 0.952912
312.0, 0.955916
318.0, 0.959541
324.0, 0.961286
330.0, 0.969468
336.0, 0.973418
342.0, 0.973466
348.0, 0.976546
354.0, 0.980508
360.0, 0.982906
366.0, 0.987288
372.0, 0.985004
378.0, 0.982331
384.0, 0.981686
390.0, 0.977311
396.0, 0.980666
402.0, 0.97289
408.0, 0.980591
414.0, 0.985107
420.0, 0.979307
426.0, 0.980388
432.0, 0.987616
438.0, 0.985357
444.0, 0.984684
450.0, 0.990315
456.0, 0.987048
462.0, 0.998421
468.0, 0.993628
474.0, 0.985145
480.0, 0.986222
486.0, 0.98714
492.0, 0.981332
498.0, 0.98388
504.0, 0.966764
510.0, 0.965666
516.0, 0.952825
522.0, 0.934361
528.0, 0.926633
534.0, 0.902712
540.0, 0.880039
546.0, 0.859729
552.0, 0.842762
558.0, 0.828253
564.0, 0.815031
570.0, 0.801315
576.0, 0.781145
582.0, 0.774408
588.0, 0.743906
594.0, 0.729074
600.0, 0.709569
606.0, 0.687826
612.0, 0.671021
618.0, 0.651504
624.0, 0.638198
630.0, 0.624864
636.0, 0.625437
642.0, 0.612552
648.0, 0.604579
654.0, 0.600665
660.0, 0.589864
666.0, 0.570884
672.0, 0.560061
678.0, 0.540147
684.0, 0.525788
690.0, 0.509302
696.0, 0.498188
702.0, 0.475316
708.0, 0.458806
714.0, 0.444179
720.0, 0.426586
726.0, 0.412874
732.0, 0.400912
738.0, 0.38849
744.0, 0.374825
750.0, 0.366334
756.0, 0.351468
762.0, 0.336066
768.0, 0.326013
774.0, 0.31054
780.0, 0.292961
786.0, 0.284414
792.0, 0.269259
798.0, 0.251316
804.0, 0.239606
810.0, 0.227254
816.0, 0.215295
822.0, 0.204842
828.0, 0.199705
834.0, 0.198759
840.0, 0.201088
846.0, 0.214078
852.0, 0.228379
858.0, 0.250667
864.0, 0.273737
870.0, 0.287789
876.0, 0.314777
882.0, 0.334879
888.0, 0.355945
894.0, 0.381802
900.0, 0.401618
906.0, 0.427372
912.0, 0.44821
918.0, 0.466783
924.0, 0.491012
930.0, 0.505204
936.0, 0.516793
942.0, 0.533097
948.0, 0.549608
954.0, 0.558218
960.0, 0.565319
966.0, 0.57948
972.0, 0.582238
978.0, 0.590963
984.0, 0.594644
990.0, 0.59947
996.0, 0.598116
1002.0, 0.597911
1008.0, 0.599556
1014.0, 0.59133
1020.0, 0.584436
1026.0, 0.57326
1032.0, 0.559107
1038.0, 0.538899
1044.0, 0.507638
1050.0, 0.487536
1056.0, 0.460248
1062.0, 0.42935
1068.0, 0.395905
1074.0, 0.366167
1080.0, 0.331335
1086.0, 0.301266
1092.0, 0.27341
1098.0, 0.243621
1104.0, 0.215716
1110.0, 0.196422
1116.0, 0.174141
1122.0, 0.152561
1128.0, 0.136874
1134.0, 0.120397
1140.0, 0.108837
1146.0, 0.101043
1152.0, 0.0917829
1158.0, 0.0778512
1164.0, 0.0734052
1170.0, 0.0632714
1176.0, 0.057999
1182.0, 0.0479998
1188.0, 0.0388723
1194.0, 0.04082
1200.0, 0.0318415
1206.0, 0.0249407
1212.0, 0.0221399
1218.0, 0.0201493
1224.0, 0.0187368
1230.0, 0.015957
1236.0, 0.013436
1242.0, 0.0110554
1248.0, 0.00532869
1254.0, 0.0109487
1260.0, 0.0046348
1266.0, 0.00715737
1272.0, 0.00402935
1278.0, 0.00309265
1284.0, 0.00315419
1290.0, 0.00746795
1296.0, 0.00395267
1302.0, 0.00551005
1308, 0.0
1314, 0.0
1320, 0.0
1326, 0.0
1332, 0.0
1338, 0.0
1344, 0.0
1350, 0.0
1356, 0.0
1362, 0.0
1368, 0.0
1374, 0.0
1380, 0.0
1386, 0.0
1392, 0.0
1398, 0.0
1404, 0.0
1410, 0.0
1416, 0.0
1422, 0.0
1428, 0.0
1434, 0.0
1440, 0.0
1446, 0.0
1452, 0.0
1458, 0.0
1464, 0.0
1470, 0.0
1476, 0.0
1482, 0.0
1488, 0.0
1494, 0.0
1500, 0.0
1506, 0.0
1512, 0.0
1518, 0.0
1524, 0.0
1530, 0.0
1536, 0.0
1542, 0.0
1548, 0.0
1554, 0.0
1560, 0.0
1566, 0.0
1572, 0.0
1578, 0.0
1584, 0.0
1590, 0.0
1596, 0.0
1599, 0.0

File: GlassDy__R110082__Raman__780__0__unoriented__Raman_Data_Processed__35502.txt
30, 0.0
36, 0.0
42, 0.0
48, 0.0
54, 0.0
60, 0.0
66, 0.0
72, 0.0
78, 0.0
84, 0.0
90, 0.0
96.0, 0.993863
102.0, 0.947268
108.0, 0.932597
114.0, 0.921178
120.0, 0.906052
126.0, 0.894319
132.0, 0.878399
138.0, 0.870655
144.0, 0.852517
150.0, 0.83955
156.0, 0.829491
162.0, 0.825252
168.0, 0.813365
174.0, 0.802844
180.0, 0.797573
186.0, 0.78669
192.0, 0.780511
198.0, 0.7757
204.0, 0.767737
210.0, 0.765038
216.0, 0.768702
222.0, 0.762129
228.0, 0.756891
234.0, 0.756707
240.0, 0.760014
246.0, 0.755841
252.0, 0.753107
258.0, 0.748043
264.0, 0.750944
270.0, 0.753565
276.0, 0.753893
282.0, 0.754099
288.0, 0.751758
294.0, 0.75042
300.0, 0.757863
306.0, 0.753551
312.0, 0.751241
318.0, 0.759117
324.0, 0.753847
330.0, 0.758151
336.0, 0.75851
342.0, 0.759855
348.0, 0.762184
354.0, 0.760922
360.0, 0.757447
366.0, 0.754596
372.0, 0.757195
378.0, 0.750306
384.0, 0.748208
390.0, 0.742038
396.0, 0.738351
402.0, 0.733496
408.0, 0.73538
414.0, 0.731981
420.0, 0.727875
426.0, 0.731109
432.0, 0.726229
438.0, 0.724721
444.0, 0.725103
450.0, 0.722538
456.0, 0.723124
462.0, 0.721926
468.0, 0.71942
474.0, 0.712483
480.0, 0.706645
486.0, 0.702758
492.0, 0.699343
498.0, 0.696297
504.0, 0.689877
510.0, 0.686389
516.0, 0.674937
522.0, 0.66321
528.0, 0.652094
534.0, 0.637762
540.0, 0.628729
546.0, 0.61595
552.0, 0.604781
558.0, 0.596801
564.0, 0.589018
570.0, 0.578063
576.0, 0.572296
582.0, 0.557443
588.0, 0.547477
594.0, 0.531076
600.0, 0.516179
606.0, 0.500505
612.0, 0.490663
618.0, 0.481631
624.0, 0.472739
630.0, 0.46683
636.0, 0.460946
642.0, 0.454845
648.0, 0.444013
654.0, 0.433808
660.0, 0.428558
666.0, 0.415003
672.0, 0.405963
678.0, 0.39419
684.0, 0.382082
690.0, 0.367393
696.0, 0.356416
702.0, 0.346199
708.0, 0.335155
714.0, 0.326752
720.0, 0.318612
726.0, 0.311963
732.0, 0.304674
738.0, 0.296902
744.0, 0.289579
750.0, 0.281118
756.0, 0.278073
762.0, 0.271705
768.0, 0.266922
774.0, 0.259641
780.0, 0.253019
786.0, 0.245459
792.0, 0.237195
798.0, 0.232454
804.0, 0.22404
810.0, 0.217763
816.0, 0.211223
822.0, 0.207497
828.0, 0.206056
834.0, 0.205546
840.0, 0.210292
846.0, 0.215443
852.0, 0.223272
858.0, 0.233349
864.0, 0.240358
870.0, 0.25028
876.0, 0.258862
882.0, 0.269551
888.0, 0.276209
894.0, 0.284758
900.0, 0.293422
906.0, 0.303006
912.0, 0.313136
918.0, 0.318426
924.0, 0.323988
930.0, 0.331013
936.0, 0.334332
942.0, 0.337397
948.0, 0.342658
954.0, 0.341247
960.0, 0.348079
966.0, 0.344532
972.0, 0.349941
978.0, 0.349409
984.0, 0.348817
990.0, 0.345505
996.0, 0.346711
1002.0, 0.342723
1008.0, 0.337858
1014.0, 0.333825
1020.0, 0.32275
1026.0, 0.32028
1032.0, 0.306515
1038.0, 0.294909
1044.0, 0.284966
1050.0, 0.269164
1056.0, 0.251774
1062.0, 0.234649
1068.0, 0.216327
1074.0, 0.200555
1080.0, 0.181871
1086.0, 0.167095
1092.0, 0.150491
1098.0, 0.137037
1104.0, 0.124109
1110.0, 0.110906
1116.0, 0.0993403
1122.0, 0.0886756
1128.0, 0.0794004
1134.0, 0.0735002
1140.0, 0.0671031
1146.0, 0.0575154
1152.0, 0.0541462
1158.0, 0.0489146
1164.0, 0.0430024
1170.0, 0.0406741
1176.0, 0.0347158
1182.0, 0.0296949
1188.0, 0.0266135
1194.0, 0.0244321
1200.0, 0.0224467
1206.0, 0.017578
1212.0, 0.0188726
1218.0, 0.0134179
1224.0, 0.0111546
1230.0, 0.0117751
1236.0, 0.00970029
1242.0, 0.00649353
1248.0, 0.00498682
1254.0, 0.00484631
1260.0, 0.00617032
1266.0, 0.00451514
1272.0, 0.00438575
1278.0, 0.00194167
1284.0, 0.00348716
1290, 0.0
1296, 0.0
1302, 0.0
1308, 0.0
1314, 0.0
1320, 0.0
1326, 0.0
1332, 0.0
1338, 0.0
1344, 0.0
1350, 0.0
1356, 0.0
1362, 0.0
1368, 0.0
1374, 0.0
1380, 0.0
1386, 0.0
1392, 0.0
1398, 0.0
1404, 0.0
1410, 0.0
1416, 0.0
1422, 0.0
1428, 0.0
1434, 0.0
1440, 0.0
1446, 0.0
1452, 0.0
1458, 0.0
1464, 0.0
1470, 0.0
1476, 0.0
1482, 0.0
1488, 0.0
1494, 0.0
1500, 0.0
1506, 0.0
1512, 0.0
1518, 0.0
1524, 0.0
1530, 0.0
1536, 0.0
1542, 0.0
1548, 0.0
1554, 0.0
1560, 0.0
1566, 0.0
1572, 0.0
1578, 0.0
1584, 0.0
1590, 0.0
1596, 0.0
1599, 0.0