Folder: 1D_CNN_For_Mineral_Classification/raw data/Dataset_2/GlassLa

File: GlassLa__R110074__Raman__532__0__unoriented__Raman_Data_Processed__35482.txt
30, 0.0
36, 0.0
42, 0.0
48, 0.0
54, 0.0
60, 0.0
66, 0.0
72, 0.0
78, 0.0
84, 0.0
90, 0.0
96, 0.0
102, 0.0
108, 0.0
114, 0.0
120, 0.0
126, 0.0
132, 0.0
138, 0.0
144, 0.0
150, 0.0
156, 0.0
162, 0.0
168, 0.0
174, 0.0
180, 0.0
186, 0.0
192, 0.0
198, 0.0
204.0, 0.996018
210.0, 0.999132
216.0, 0.996265
222.0, 0.998507
228.0, 0.990514
234.0, 0.981626
240.0, 0.976682
246.0, 0.97109
252.0, 0.972751
258.0, 0.973702
264.0, 0.96182
270.0, 0.965052
276.0, 0.965856
282.0, 0.958595
288.0, 0.956402
294.0, 0.957206
300.0, 0.961439
306.0, 0.966905
312.0, 0.967382
318.0, 0.975593
324.0, 0.975694
330.0, 0.97667
336.0, 0.985152
342.0, 0.983469
348.0, 0.983471
354.0, 0.987059
360.0, 0.988527
366.0, 0.985073
372.0, 0.985784
378.0, 0.98022
384.0, 0.978277
390.0, 0.981383
396.0, 0.974316
402.0, 0.970958
408.0, 0.973645
414.0, 0.97989
420.0, 0.972247
426.0, 0.979003
432.0, 0.981777
438.0, 0.98374
444.0, 0.989081
450.0, 0.995018
456.0, 0.987272
462.0, 0.987861
468.0, 0.977637
474.0, 0.969004
480.0, 0.969423
486.0, 0.961895
492.0, 0.953881
498.0, 0.9458
504.0, 0.933576
510.0, 0.909832
516.0, 0.888308
522.0, 0.853013
528.0, 0.833623
534.0, 0.797548
540.0, 0.770068
546.0, 0.739636
552.0, 0.719814
558.0, 0.696781
564.0, 0.684961
570.0, 0.670753
576.0, 0.657287
582.0, 0.641825
588.0, 0.620905
594.0, 0.605718
600.0, 0.582126
606.0, 0.558759
612.0, 0.538967
618.0, 0.519073
624.0, 0.497549
630.0, 0.484632
636.0, 0.475506
642.0, 0.459298
648.0, 0.44397
654.0, 0.42969
660.0, 0.415204
666.0, 0.397034
672.0, 0.377698
678.0, 0.366007
684.0, 0.347974
690.0, 0.333816
696.0, 0.312468
702.0, 0.299382
708.0, 0.288465
714.0, 0.270634
720.0, 0.260353
726.0, 0.251512
732.0, 0.247155
738.0, 0.237651
744.0, 0.231594
750.0, 0.226059
756.0, 0.222964
762.0, 0.218289
768.0, 0.212207
774.0, 0.210006
780.0, 0.202996
786.0, 0.197054
792.0, 0.187537
798.0, 0.176399
804.0, 0.168028
810.0, 0.154203
816.0, 0.150014
822.0, 0.137534
828.0, 0.128562
834.0, 0.125538
840.0, 0.125649
846.0, 0.135067
852.0, 0.146398
858.0, 0.166488
864.0, 0.184722
870.0, 0.207389
876.0, 0.234365
882.0, 0.25514
888.0, 0.287341
894.0, 0.313885
900.0, 0.342584
906.0, 0.375599
912.0, 0.399566
918.0, 0.431534
924.0, 0.454913
930.0, 0.479267
936.0, 0.495008
942.0, 0.510906
948.0, 0.532004
954.0, 0.543186
960.0, 0.5606
966.0, 0.57875
972.0, 0.586788
978.0, 0.59966
984.0, 0.608772
990.0, 0.621104
996.0, 0.629379
1002.0, 0.634966
1008.0, 0.642446
1014.0, 0.643854
1020.0, 0.643495
1026.0, 0.631423
1032.0, 0.624072
1038.0, 0.608049
1044.0, 0.585366
1050.0, 0.56143
1056.0, 0.529052
1062.0, 0.492143
1068.0, 0.447608
1074.0, 0.407319
1080.0, 0.368724
1086.0, 0.334713
1092.0, 0.300765
1098.0, 0.270578
1104.0, 0.242027
1110.0, 0.220178
1116.0, 0.20105
1122.0, 0.181464
1128.0, 0.165702
1134.0, 0.146374
1140.0, 0.135137
1146.0, 0.124757
1152.0, 0.111773
1158.0, 0.100214
1164.0, 0.0908762
1170.0, 0.0827173
1176.0, 0.0783384
1182.0, 0.0676668
1188.0, 0.0611743
1194.0, 0.0497352
1200.0, 0.0461229
1206.0, 0.0393214
1212.0, 0.0327996
1218.0, 0.0270124
1224.0, 0.0241659
1230.0, 0.0170307
1236.0, 0.0135763
1242.0, 0.00794035
1248.0, 0.00810592
1254.0, 0.00607122
1260.0, 0.00766036
1266.0, 0.00565917
1272.0, 0.00527837
1278.0, 0.00708689
1284.0, 0.0060515
1290.0, 0.00471989
1296.0, 0.00117911
1302.0, 0.00154927
1308, 0.0
1314, 0.0
1320, 0.0
1326, 0.0
1332, 0.0
1338, 0.0
1344, 0.0
1350, 0.0
1356, 0.0
1362, 0.0
1368, 0.0
1374, 0.0
1380, 0.0
1386, 0.0
1392, 0.0
1398, 0.0
1404, 0.0
1410, 0.0
1416, 0.0
1422, 0.0
1428, 0.0
1434, 0.0
1440, 0.0
1446, 0.0
1452, 0.0
1458, 0.0
1464, 0.0
1470, 0.0
1476, 0.0
1482, 0.0
1488, 0.0
1494, 0.0
1500, 0.0
1506, 0.0
1512, 0.0
1518, 0.0
1524, 0.0
1530, 0.0
1536, 0.0
1542, 0.0
1548, 0.0
1554, 0.0
1560, 0.0
1566, 0.0
1572, 0.0
1578, 0.0
1584, 0.0
1590, 0.0
1596, 0.0
1599, 0.0

File: GlassLa__R110074__Raman__780__0__unoriented__Raman_Data_Processed__35481.txt
30, 0.0
36, 0.0
42, 0.0
48, 0.0
54, 0.0
60, 0.0
66, 0.0
72, 0.0
78, 0.0
84, 0.0
90, 0.0
96, 0.0
102.0, 0.00144323
108.0, 0.00200683
114.0, 0.0041382
120.0, 0.00561552
126.0, 0.00798463
132.0, 0.00914664
138.0, 0.0119146
144.0, 0.0138334
150.0, 0.0149765
156.0, 0.0187661
162.0, 0.0202951
168.0, 0.0227739
174.0, 0.0248926
180.0, 0.0283381
186.0, 0.0297286
192.0, 0.0326803
198.0, 0.0352771
204.0, 0.038631
210.0, 0.0405661
216.0, 0.0449603
222.0, 0.0483214
228.0, 0.0498756
234.0, 0.0527249
240.0, 0.0557319
246.0, 0.0580579
252.0, 0.061401
258.0, 0.0640584
264.0, 0.0672491
270.0, 0.0704003
276.0, 0.0733509
282.0, 0.0762115
288.0, 0.0795028
294.0, 0.080476
300.0, 0.0835524
306.0, 0.0862004
312.0, 0.0891884
318.0, 0.0924166
324.0, 0.0972863
330.0, 0.101302
336.0, 0.106939
342.0, 0.112405
348.0, 0.121613
354.0, 0.128711
360.0, 0.137197
366.0, 0.146707
372.0, 0.157425
378.0, 0.167334
384.0, 0.178841
390.0, 0.188701
396.0, 0.198172
402.0, 0.206789
408.0, 0.21359
414.0, 0.220528
420.0, 0.223302
426.0, 0.226689
432.0, 0.225492
438.0, 0.224972
444.0, 0.22361
450.0, 0.218015
456.0, 0.216088
462.0, 0.211509
468.0, 0.207811
474.0, 0.201427
480.0, 0.197119
486.0, 0.19352
492.0, 0.190802
498.0, 0.185407
504.0, 0.183446
510.0, 0.181095
516.0, 0.176762
522.0, 0.173366
528.0, 0.168584
534.0, 0.166035
540.0, 0.162961
546.0, 0.159642
552.0, 0.156025
558.0, 0.153359
564.0, 0.15072
570.0, 0.149057
576.0, 0.146818
582.0, 0.143388
588.0, 0.141972
594.0, 0.139245
600.0, 0.134713
606.0, 0.134013
612.0, 0.132688
618.0, 0.130542
624.0, 0.127116
630.0, 0.12662
636.0, 0.123268
642.0, 0.122986
648.0, 0.121593
654.0, 0.118749
660.0, 0.117015
666.0, 0.113882
672.0, 0.112776
678.0, 0.111153
684.0, 0.108492
690.0, 0.105975
696.0, 0.105191
702.0, 0.103197
708.0, 0.102144
714.0, 0.100897
720.0, 0.0989207
726.0, 0.0975189
732.0, 0.0981634
738.0, 0.0956718
744.0, 0.0933591
750.0, 0.0947678
756.0, 0.0918179
762.0, 0.0919974
768.0, 0.0895277
774.0, 0.0894272
780.0, 0.089973
786.0, 0.0889014
792.0, 0.088611
798.0, 0.0861386
804.0, 0.0847838
810.0, 0.0853321
816.0, 0.083296
822.0, 0.0836244
828.0, 0.081916
834.0, 0.0808436
840.0, 0.0819223
846.0, 0.0800096
852.0, 0.0828724
858.0, 0.0815536
864.0, 0.0819537
870.0, 0.082524
876.0, 0.0838904
882.0, 0.0851666
888.0, 0.0851794
894.0, 0.0877915
900.0, 0.0873321
906.0, 0.0904366
912.0, 0.0931872
918.0, 0.0970374
924.0, 0.097116
930.0, 0.099206
936.0, 0.102673
942.0, 0.104545
948.0, 0.105875
954.0, 0.108696
960.0, 0.111922
966.0, 0.112832
972.0, 0.115813
978.0, 0.11798
984.0, 0.123577
990.0, 0.125908
996.0, 0.12837
1002.0, 0.132299
1008.0, 0.137702
1014.0, 0.142462
1020.0, 0.146441
1026.0, 0.150735
1032.0, 0.156847
1038.0, 0.162639
1044.0, 0.167907
1050.0, 0.173877
1056.0, 0.181958
1062.0, 0.188167
1068.0, 0.197722
1074.0, 0.206933
1080.0, 0.217758
1086.0, 0.229779
1092.0, 0.244
1098.0, 0.25721
1104.0, 0.272984
1110.0, 0.290211
1116.0, 0.305431
1122.0, 0.325514
1128.0, 0.347078
1134.0, 0.371186
1140.0, 0.394399
1146.0, 0.42053
1152.0, 0.449544
1158.0, 0.477015
1164.0, 0.505568
1170.0, 0.537891
1176.0, 0.568765
1182.0, 0.599706
1188.0, 0.631202
1194.0, 0.66022
1200.0, 0.68773
1206.0, 0.717451
1212.0, 0.74497
1218.0, 0.770208
1224.0, 0.794968
1230.0, 0.819002
1236.0, 0.840637
1242.0, 0.856327
1248.0, 0.879822
1254.0, 0.891121
1260.0, 0.911179
1266.0, 0.93104
1272.0, 0.948315
1278.0, 0.969842
1284.0, 0.996986
1290, 0.0
1296, 0.0
1302, 0.0
1308, 0.0
1314, 0.0
1320, 0.0
1326, 0.0
1332, 0.0
1338, 0.0
1344, 0.0
1350, 0.0
1356, 0.0
1362, 0.0
1368, 0.0
1374, 0.0
1380, 0.0
1386, 0.0
1392, 0.0
1398, 0.0
1404, 0.0
1410, 0.0
1416, 0.0
1422, 0.0
1428, 0.0
1434, 0.0
1440, 0.0
1446, 0.0
1452, 0.0
1458, 0.0
1464, 0.0
1470, 0.0
1476, 0.0
1482, 0.0
1488, 0.0
1494, 0.0
1500, 0.0
1506, 0.0
1512, 0.0
1518, 0.0
1524, 0.0
1530, 0.0
1536, 0.0
1542, 0.0
1548, 0.0
1554, 0.0
1560, 0.0
1566, 0.0
1572, 0.0
1578, 0.0
1584, 0.0
1590, 0.0
1596, 0.0
1599, 0.0