Folder: 1D_CNN_For_Mineral_Classification/raw data/Dataset_2/GlassYb

File: GlassYb__R110086__Raman__532__0__unoriented__Raman_Data_Processed__35513.txt
30, 0.0
36, 0.0
42, 0.0
48, 0.0
54, 0.0
60, 0.0
66, 0.0
72, 0.0
78, 0.0
84, 0.0
90, 0.0
96, 0.0
102, 0.0
108, 0.0
114, 0.0
120, 0.0
126, 0.0
132, 0.0
138, 0.0
144, 0.0
150, 0.0
156, 0.0
162, 0.0
168, 0.0
174, 0.0
180, 0.0
186, 0.0
192, 0.0
198.0, 0.988407
204.0, 0.994331
210.0, 0.98002
216.0, 0.976549
222.0, 0.970324
228.0, 0.971441
234.0, 0.959299
240.0, 0.949548
246.0, 0.933162
252.0, 0.931961
258.0, 0.929251
264.0, 0.922484
270.0, 0.924401
276.0, 0.917609
282.0, 0.925063
288.0, 0.906865
294.0, 0.910137
300.0, 0.913382
306.0, 0.911054
312.0, 0.916956
318.0, 0.920452
324.0, 0.917157
330.0, 0.919057
336.0, 0.931479
342.0, 0.92908
348.0, 0.922335
354.0, 0.929316
360.0, 0.932191
366.0, 0.935092
372.0, 0.927262
378.0, 0.924662
384.0, 0.931242
390.0, 0.925634
396.0, 0.925531
402.0, 0.914121
408.0, 0.930442
414.0, 0.929163
420.0, 0.927786
426.0, 0.932752
432.0, 0.937925
438.0, 0.93848
444.0, 0.939719
450.0, 0.942062
456.0, 0.943328
462.0, 0.959454
468.0, 0.954546
474.0, 0.948728
480.0, 0.947687
486.0, 0.94895
492.0, 0.946793
498.0, 0.953008
504.0, 0.935488
510.0, 0.934643
516.0, 0.920391
522.0, 0.905139
528.0, 0.902272
534.0, 0.86822
540.0, 0.855976
546.0, 0.833969
552.0, 0.815796
558.0, 0.805911
564.0, 0.79262
570.0, 0.782049
576.0, 0.757631
582.0, 0.755719
588.0, 0.719432
594.0, 0.706261
600.0, 0.685755
606.0, 0.663082
612.0, 0.64304
618.0, 0.6265
624.0, 0.607603
630.0, 0.59363
636.0, 0.591237
642.0, 0.579737
648.0, 0.573128
654.0, 0.571954
660.0, 0.557641
666.0, 0.534699
672.0, 0.525991
678.0, 0.509358
684.0, 0.495726
690.0, 0.477169
696.0, 0.467535
702.0, 0.442162
708.0, 0.429137
714.0, 0.414775
720.0, 0.396083
726.0, 0.380549
732.0, 0.370255
738.0, 0.360023
744.0, 0.344181
750.0, 0.344296
756.0, 0.328627
762.0, 0.315914
768.0, 0.303861
774.0, 0.28691
780.0, 0.2751
786.0, 0.272425
792.0, 0.25101
798.0, 0.23696
804.0, 0.230824
810.0, 0.215676
816.0, 0.205622
822.0, 0.192593
828.0, 0.1911
834.0, 0.187061
840.0, 0.189727
846.0, 0.204842
852.0, 0.216007
858.0, 0.238899
864.0, 0.266435
870.0, 0.279182
876.0, 0.305024
882.0, 0.324879
888.0, 0.349003
894.0, 0.376476
900.0, 0.398786
906.0, 0.420654
912.0, 0.443021
918.0, 0.467589
924.0, 0.495094
930.0, 0.508972
936.0, 0.523069
942.0, 0.540385
948.0, 0.553536
954.0, 0.568982
960.0, 0.570939
966.0, 0.584608
972.0, 0.592238
978.0, 0.596385
984.0, 0.600109
990.0, 0.610178
996.0, 0.606438
1002.0, 0.607543
1008.0, 0.619334
1014.0, 0.605837
1020.0, 0.603551
1026.0, 0.591703
1032.0, 0.571602
1038.0, 0.561292
1044.0, 0.526075
1050.0, 0.510487
1056.0, 0.483375
1062.0, 0.453723
1068.0, 0.420116
1074.0, 0.388843
1080.0, 0.352154
1086.0, 0.322409
1092.0, 0.292798
1098.0, 0.265346
1104.0, 0.238124
1110.0, 0.216289
1116.0, 0.193466
1122.0, 0.167921
1128.0, 0.153006
1134.0, 0.134078
1140.0, 0.121138
1146.0, 0.111041
1152.0, 0.101685
1158.0, 0.0886396
1164.0, 0.0812549
1170.0, 0.0704075
1176.0, 0.0653391
1182.0, 0.0528477
1188.0, 0.0456019
1194.0, 0.0471662
1200.0, 0.0364913
1206.0, 0.0282686
1212.0, 0.0259318
1218.0, 0.0263214
1224.0, 0.0230504
1230.0, 0.0203507
1236.0, 0.0165816
1242.0, 0.0144156
1248.0, 0.00750684
1254.0, 0.0137701
1260.0, 0.00654092
1266.0, 0.00747135
1272.0, 0.00592279
1278.0, 0.00480472
1284.0, 0.00452259
1290.0, 0.00960295
1296.0, 0.00714443
1302.0, 0.00980641
1308, 0.0
1314, 0.0
1320, 0.0
1326, 0.0
1332, 0.0
1338, 0.0
1344, 0.0
1350, 0.0
1356, 0.0
1362, 0.0
1368, 0.0
1374, 0.0
1380, 0.0
1386, 0.0
1392, 0.0
1398, 0.0
1404, 0.0
1410, 0.0
1416, 0.0
1422, 0.0
1428, 0.0
1434, 0.0
1440, 0.0
1446, 0.0
1452, 0.0
1458, 0.0
1464, 0.0
1470, 0.0
1476, 0.0
1482, 0.0
1488, 0.0
1494, 0.0
1500, 0.0
1506, 0.0
1512, 0.0
1518, 0.0
1524, 0.0
1530, 0.0
1536, 0.0
1542, 0.0
1548, 0.0
1554, 0.0
1560, 0.0
1566, 0.0
1572, 0.0
1578, 0.0
1584, 0.0
1590, 0.0
1596, 0.0
1599, 0.0

File: GlassYb__R110086__Raman__780__0__unoriented__Raman_Data_Processed__35512.txt
30, 0.0
36, 0.0
42, 0.0
48, 0.0
54, 0.0
60, 0.0
66, 0.0
72, 0.0
78, 0.0
84, 0.0
90, 0.0
96, 0.0
102, 0.0
108, 0.0
114.0, 0.993069
120.0, 0.99173
126.0, 0.992253
132.0, 0.984679
138.0, 0.978052
144.0, 0.967298
150.0, 0.956894
156.0, 0.951905
162.0, 0.942195
168.0, 0.936689
174.0, 0.926672
180.0, 0.918314
186.0, 0.899559
192.0, 0.889425
198.0, 0.871993
204.0, 0.856402
210.0, 0.838205
216.0, 0.825429
222.0, 0.809356
228.0, 0.795837
234.0, 0.782583
240.0, 0.771321
246.0, 0.759206
252.0, 0.749193
258.0, 0.741466
264.0, 0.735501
270.0, 0.732909
276.0, 0.726454
282.0, 0.728654
288.0, 0.726966
294.0, 0.729038
300.0, 0.736673
306.0, 0.737625
312.0, 0.739164
318.0, 0.746316
324.0, 0.749453
330.0, 0.75144
336.0, 0.757405
342.0, 0.757517
348.0, 0.759831
354.0, 0.75359
360.0, 0.745813
366.0, 0.739195
372.0, 0.732659
378.0, 0.721861
384.0, 0.716409
390.0, 0.702519
396.0, 0.694153
402.0, 0.683516
408.0, 0.679603
414.0, 0.669859
420.0, 0.665897
426.0, 0.660357
432.0, 0.653062
438.0, 0.648787
444.0, 0.644021
450.0, 0.639036
456.0, 0.63572
462.0, 0.636926
468.0, 0.631016
474.0, 0.621642
480.0, 0.619414
486.0, 0.612206
492.0, 0.604903
498.0, 0.598763
504.0, 0.593154
510.0, 0.58015
516.0, 0.570371
522.0, 0.553104
528.0, 0.540552
534.0, 0.524138
540.0, 0.510823
546.0, 0.494311
552.0, 0.483621
558.0, 0.472544
564.0, 0.460731
570.0, 0.449499
576.0, 0.430509
582.0, 0.416873
588.0, 0.399376
594.0, 0.382765
600.0, 0.365976
606.0, 0.347196
612.0, 0.332422
618.0, 0.320339
624.0, 0.308295
630.0, 0.294825
636.0, 0.285928
642.0, 0.277362
648.0, 0.266466
654.0, 0.258492
660.0, 0.249595
666.0, 0.235404
672.0, 0.227524
678.0, 0.212818
684.0, 0.20325
690.0, 0.190968
696.0, 0.179606
702.0, 0.166313
708.0, 0.159515
714.0, 0.151252
720.0, 0.14203
726.0, 0.135578
732.0, 0.126831
738.0, 0.120814
744.0, 0.110454
750.0, 0.104957
756.0, 0.102221
762.0, 0.0972272
768.0, 0.0941159
774.0, 0.0850243
780.0, 0.0802402
786.0, 0.0732644
792.0, 0.0695794
798.0, 0.0625301
804.0, 0.0584105
810.0, 0.0534985
816.0, 0.0489069
822.0, 0.0442292
828.0, 0.0439202
834.0, 0.0421125
840.0, 0.0482092
846.0, 0.0512446
852.0, 0.0608461
858.0, 0.0710206
864.0, 0.0761928
870.0, 0.0853957
876.0, 0.0949558
882.0, 0.10465
888.0, 0.114941
894.0, 0.122614
900.0, 0.132286
906.0, 0.139693
912.0, 0.14835
918.0, 0.156947
924.0, 0.165101
930.0, 0.172114
936.0, 0.178566
942.0, 0.180769
948.0, 0.190865
954.0, 0.192415
960.0, 0.196809
966.0, 0.199568
972.0, 0.206143
978.0, 0.20589
984.0, 0.211594
990.0, 0.209497
996.0, 0.212757
1002.0, 0.212092
1008.0, 0.2115
1014.0, 0.209629
1020.0, 0.20547
1026.0, 0.204231
1032.0, 0.19515
1038.0, 0.187981
1044.0, 0.180859
1050.0, 0.169678
1056.0, 0.156164
1062.0, 0.143826
1068.0, 0.132248
1074.0, 0.122669
1080.0, 0.107531
1086.0, 0.0955189
1092.0, 0.0809104
1098.0, 0.0733853
1104.0, 0.061801
1110.0, 0.0512979
1116.0, 0.0449875
1122.0, 0.0376641
1128.0, 0.0311392
1134.0, 0.0278118
1140.0, 0.0236284
1146.0, 0.0164727
1152.0, 0.0147582
1158.0, 0.011457
1164.0, 0.00995659
1170.0, 0.00918754
1176.0, 0.00637082
1182.0, 0.00377232
1188.0, 0.00256867
1194.0, 0.00323498
1200.0, 0.00489808
1206.0, 0.00430074
1212.0, 0.00469999
1218.0, 0.00442406
1224.0, 0.00467647
1230.0, 0.0078899
1236.0, 0.00832306
1242.0, 0.00786269
1248.0, 0.00905288
1254.0, 0.0109432
1260.0, 0.015651
1266.0, 0.0177538
1272.0, 0.0229492
1278.0, 0.0231844
1284.0, 0.0287467
1290, 0.0
1296, 0.0
1302, 0.0
1308, 0.0
1314, 0.0
1320, 0.0
1326, 0.0
1332, 0.0
1338, 0.0
1344, 0.0
1350, 0.0
1356, 0.0
1362, 0.0
1368, 0.0
1374, 0.0
1380, 0.0
1386, 0.0
1392, 0.0
1398, 0.0
1404, 0.0
1410, 0.0
1416, 0.0
1422, 0.0
1428, 0.0
1434, 0.0
1440, 0.0
1446, 0.0
1452, 0.0
1458, 0.0
1464, 0.0
1470, 0.0
1476, 0.0
1482, 0.0
1488, 0.0
1494, 0.0
1500, 0.0
1506, 0.0
1512, 0.0
1518, 0.0
1524, 0.0
1530, 0.0
1536, 0.0
1542, 0.0
1548, 0.0
1554, 0.0
1560, 0.0
1566, 0.0
1572, 0.0
1578, 0.0
1584, 0.0
1590, 0.0
1596, 0.0
1599, 0.0