Folder: 1D_CNN_For_Mineral_Classification/raw data/Dataset_2/Nickeltalmessite

File: Nickeltalmessite__R090023__Raman__532__0__unoriented__Raman_Data_Processed__32116.txt
30, 0.0
36, 0.0
42, 0.0
48, 0.0
54, 0.0
60, 0.0
66, 0.0
72, 0.0
78, 0.0
84, 0.0
90, 0.0
96, 0.0
102, 0.0
108, 0.0
114, 0.0
120, 0.0
126, 0.0
132, 0.0
138.0, 7.63676e-05
144.0, 0.0101884
150.0, 0.0182798
156.0, 0.0327983
162.0, 0.0781846
168.0, 0.0190092
174.0, 0.0233214
180.0, 0.0394543
186.0, 0.0294515
192.0, 0.0519444
198.0, 0.11107
204.0, 0.0202989
210.0, 0.00899313
216.0, 0.0117461
222.0, 0.00173989
228.0, 0.00106237
234.0, 0.015397
240.0, 0.0357736
246.0, 0.0378902
252.0, 0.0467195
258.0, 0.034085
264.0, 0.0174478
270.0, 0.0241382
276.0, 0.0451898
282.0, 0.0143214
288.0, 0.00270356
294.0, 0.00191102
300.0, 0.0115589
306.0, 0.0362833
312.0, 0.0237275
318.0, 0.00263911
324.0, 0.00018614
330.0, 0.00545604
336.0, 0.023903
342.0, 0.0681751
348.0, 0.143308
354.0, 0.248424
360.0, 0.270964
366.0, 0.15156
372.0, 0.0545891
378.0, 0.0403727
384.0, 0.0549304
390.0, 0.101274
396.0, 0.0385195
402.0, 0.0058235
408.0, 0.000290441
414.0, 0.000737378
420.0, 0.00127223
426.0, 0.00527064
432.0, 0.017565
438.0, 0.0459377
444.0, 0.0992218
450.0, 0.163117
456.0, 0.167341
462.0, 0.150439
468.0, 0.0645293
474.0, 0.0244847
480.0, 0.0115724
486.0, 0.0043673
492.0, 0.00235914
498.0, 0.000174824
504.0, 3.05198e-05
510.0, 0.00104574
516.0, 4.65118e-05
522.0, 0.000590314
528.0, 0.000219709
534.0, 0.000145891
540.0, 0.000842407
546.0, 0.00113595
552.0, 0.00205478
558.0, 0.00259211
564.0, 0.00214954
570.0, 0.00201795
576.0, 0.00133022
582.0, 0.00157268
588.0, 0.00178443
594.0, 0.00192389
600.0, 0.00213071
606.0, 0.0022126
612.0, 0.00298019
618.0, 0.00312433
624.0, 0.00418199
630.0, 0.00350028
636.0, 0.00467647
642.0, 0.00600471
648.0, 0.00583174
654.0, 0.00652463
660.0, 0.00750681
666.0, 0.00792958
672.0, 0.0111353
678.0, 0.0121885
684.0, 0.0129983
690.0, 0.0109144
696.0, 0.00982346
702.0, 0.00698191
708.0, 0.00540255
714.0, 0.00296207
720.0, 0.000910404
726.0, 0.00170752
732.0, 0.00327453
738.0, 0.00282667
744.0, 0.000900586
750.0, 0.00108146
756.0, 3.78547e-05
762.0, 0.00662705
768.0, 0.0305332
774.0, 0.0557943
780.0, 0.048702
786.0, 0.0365893
792.0, 0.042832
798.0, 0.114812
804.0, 0.266588
810.0, 0.369176
816.0, 0.304614
822.0, 0.312802
828.0, 0.569578
834.0, 0.971284
840.0, 0.620668
846.0, 0.168991
852.0, 0.0601068
858.0, 0.0453223
864.0, 0.0901573
870.0, 0.233841
876.0, 0.527836
882.0, 0.335359
888.0, 0.0627922
894.0, 0.0148303
900.0, 0.00302521
906.0, 0.000580131
912.0, 0.00289711
918.0, 0.00279473
924.0, 0.00187787
930.0, 0.000474273
936.0, 0.00194107
942.0, 0.00435794
948.0, 0.00577966
954.0, 0.00751124
960.0, 0.00837756
966.0, 0.0100341
972.0, 0.00948106
978.0, 0.00904234
984.0, 0.00885268
990.0, 0.00749256
996.0, 0.00680515
1002.0, 0.00605992
1008.0, 0.00494729
1014.0, 0.00455441
1020.0, 0.00443863
1026.0, 0.00360099
1032.0, 0.00352704
1038.0, 0.00344235
1044.0, 0.00405704
1050.0, 0.00403356
1056.0, 0.00393508
1062.0, 0.00378413
1068.0, 0.00295347
1074.0, 0.00142295
1080.0, 0.00141727
1086.0, 0.000694758
1092.0, 0.000216711
1098.0, 0.000574348
1104.0, 0.000604108
1110.0, 0.000782662
1116.0, 0.000729316
1122.0, 0.000483961
1128.0, 0.000690757
1134.0, 0.000521799
1140.0, 0.000263801
1146.0, 0.000369648
1152.0, 2.50168e-05
1158.0, 0.000247443
1164.0, 0.000976456
1170.0, 0.000308837
1176.0, 0.000694929
1182.0, 0.00116633
1188.0, 0.000988195
1194.0, 0.000595688
1200.0, 0.00063268
1206.0, 0.000262461
1212.0, 0.00134124
1218.0, 0.000955395
1224.0, 0.00142443
1230.0, 0.000516714
1236.0, 0.000105958
1242.0, 0.000633557
1248.0, 0.00136451
1254.0, 0.00132812
1260.0, 0.000297514
1266.0, 0.00108279
1272.0, 0.0010348
1278.0, 0.00082644
1284.0, 0.00122042
1290.0, 0.000261946
1296.0, 0.000895657
1302.0, 0.00112514
1308, 0.0
1314, 0.0
1320, 0.0
1326, 0.0
1332, 0.0
1338, 0.0
1344, 0.0
1350, 0.0
1356, 0.0
1362, 0.0
1368, 0.0
1374, 0.0
1380, 0.0
1386, 0.0
1392, 0.0
1398, 0.0
1404, 0.0
1410, 0.0
1416, 0.0
1422, 0.0
1428, 0.0
1434, 0.0
1440, 0.0
1446, 0.0
1452, 0.0
1458, 0.0
1464, 0.0
1470, 0.0
1476, 0.0
1482, 0.0
1488, 0.0
1494, 0.0
1500, 0.0
1506, 0.0
1512, 0.0
1518, 0.0
1524, 0.0
1530, 0.0
1536, 0.0
1542, 0.0
1548, 0.0
1554, 0.0
1560, 0.0
1566, 0.0
1572, 0.0
1578, 0.0
1584, 0.0
1590, 0.0
1596, 0.0
1599, 0.0

File: Nickeltalmessite__R090023__Raman__780__0__unoriented__Raman_Data_Processed__32114.txt
30, 0.0
36, 0.0
42, 0.0
48, 0.0
54, 0.0
60, 0.0
66, 0.0
72, 0.0
78, 0.0
84, 0.0
90, 0.0
96.0, 0.00699108
102.0, 0.0432825
108.0, 0.0717589
114.0, 0.0308112
120.0, 0.0335039
126.0, 0.000825747
132.0, 0.00303501
138.0, 0.000699316
144.0, 0.0102211
150.0, 0.0182073
156.0, 0.0442067
162.0, 0.0861903
168.0, 0.0387868
174.0, 0.0597003
180.0, 0.0823118
186.0, 0.0543563
192.0, 0.0731499
198.0, 0.120988
204.0, 0.03161
210.0, 0.0295693
216.0, 0.0308737
222.0, 0.0103833
228.0, 0.0128926
234.0, 0.0413252
240.0, 0.0687385
246.0, 0.0726537
252.0, 0.0910415
258.0, 0.0577979
264.0, 0.0206344
270.0, 0.0267929
276.0, 0.0397183
282.0, 0.00366604
288.0, 0.00565208
294.0, 0.00194478
300.0, 0.0201867
306.0, 0.044971
312.0, 0.0237566
318.0, 0.00163122
324.0, 0.000835071
330.0, 0.0140118
336.0, 0.0495463
342.0, 0.123441
348.0, 0.222985
354.0, 0.332319
360.0, 0.355349
366.0, 0.203205
372.0, 0.0836546
378.0, 0.0625391
384.0, 0.0811661
390.0, 0.120729
396.0, 0.0407297
402.0, 0.00626551
408.0, 0.00132382
414.0, 0.00110326
420.0, 0.00326566
426.0, 0.0123779
432.0, 0.0351737
438.0, 0.0743085
444.0, 0.144662
450.0, 0.213494
456.0, 0.189471
462.0, 0.153178
468.0, 0.0676591
474.0, 0.0273806
480.0, 0.0109483
486.0, 0.00379521
492.0, 0.00464643
498.0, 0.000515957
504.0, 0.00266427
510.0, 0.00171329
516.0, 0.00235547
522.0, 0.00219063
528.0, 0.000997884
534.0, 0.000260249
540.0, 0.0020737
546.0, 0.0023154
552.0, 0.0027949
558.0, 0.00408501
564.0, 0.00275298
570.0, 0.00153138
576.0, 0.00098427
582.0, 0.00196361
588.0, 0.00309392
594.0, 0.00210717
600.0, 0.00032507
606.0, 0.00276831
612.0, 0.00289706
618.0, 0.00276404
624.0, 0.00400856
630.0, 0.00375265
636.0, 0.00438792
642.0, 0.00532931
648.0, 0.00566552
654.0, 0.00598655
660.0, 0.00793532
666.0, 0.00858295
672.0, 0.00896584
678.0, 0.0124228
684.0, 0.0104621
690.0, 0.00877327
696.0, 0.00887377
702.0, 0.00556215
708.0, 0.00438857
714.0, 0.00395068
720.0, 0.000963459
726.0, 0.00302322
732.0, 0.0015551
738.0, 0.00346115
744.0, 0.00217126
750.0, 0.00312052
756.0, 0.0124226
762.0, 0.0376568
768.0, 0.0773994
774.0, 0.112915
780.0, 0.0926026
786.0, 0.0827292
792.0, 0.115593
798.0, 0.223567
804.0, 0.390652
810.0, 0.452114
816.0, 0.364106
822.0, 0.418941
828.0, 0.670944
834.0, 0.992875
840.0, 0.562183
846.0, 0.145996
852.0, 0.0495629
858.0, 0.0299505
864.0, 0.0691495
870.0, 0.154531
876.0, 0.299884
882.0, 0.163494
888.0, 0.0237847
894.0, 0.00387098
900.0, 0.00284522
906.0, 0.00327928
912.0, 0.00233069
918.0, 0.000205276
924.0, 0.000467737
930.0, 0.00141285
936.0, 0.00234174
942.0, 0.00650104
948.0, 0.00901337
954.0, 0.010773
960.0, 0.0106556
966.0, 0.0105812
972.0, 0.0102265
978.0, 0.00853412
984.0, 0.00649095
990.0, 0.00467162
996.0, 0.00383495
1002.0, 0.00519441
1008.0, 0.00660807
1014.0, 0.00464834
1020.0, 0.00581818
1026.0, 0.00325197
1032.0, 0.00283203
1038.0, 0.00415892
1044.0, 0.00310387
1050.0, 0.00433425
1056.0, 0.00436856
1062.0, 0.00242437
1068.0, 0.0028235
1074.0, 0.00211376
1080.0, 0.00119617
1086.0, 0.00225047
1092.0, 0.00168025
1098.0, 0.000713935
1104.0, 0.00103002
1110.0, 0.00196429
1116.0, 0.00257565
1122.0, 0.00345591
1128.0, 0.000564506
1134.0, 0.00300594
1140.0, 0.00204859
1146.0, 0.000766179
1152.0, 0.000551973
1158.0, 0.00138711
1164.0, 0.000958821
1170.0, 0.00311731
1176.0, 0.00241412
1182.0, 0.000739578
1188.0, 0.00198265
1194.0, 0.00181801
1200.0, 0.00165889
1206.0, 0.000376155
1212.0, 0.00320937
1218.0, 0.00146377
1224.0, 0.00178971
1230.0, 0.00159211
1236.0, 0.00266278
1242.0, 0.00131298
1248.0, 0.00286847
1254.0, 0.00150472
1260.0, 0.00265246
1266.0, 0.00198714
1272.0, 0.00111161
1278.0, 0.00125583
1284.0, 0.00187144
1290, 0.0
1296, 0.0
1302, 0.0
1308, 0.0
1314, 0.0
1320, 0.0
1326, 0.0
1332, 0.0
1338, 0.0
1344, 0.0
1350, 0.0
1356, 0.0
1362, 0.0
1368, 0.0
1374, 0.0
1380, 0.0
1386, 0.0
1392, 0.0
1398, 0.0
1404, 0.0
1410, 0.0
1416, 0.0
1422, 0.0
1428, 0.0
1434, 0.0
1440, 0.0
1446, 0.0
1452, 0.0
1458, 0.0
1464, 0.0
1470, 0.0
1476, 0.0
1482, 0.0
1488, 0.0
1494, 0.0
1500, 0.0
1506, 0.0
1512, 0.0
1518, 0.0
1524, 0.0
1530, 0.0
1536, 0.0
1542, 0.0
1548, 0.0
1554, 0.0
1560, 0.0
1566, 0.0
1572, 0.0
1578, 0.0
1584, 0.0
1590, 0.0
1596, 0.0
1599, 0.0