Folder: 1D_CNN_For_Mineral_Classification/raw data/Dataset_2/Perovskite

File: Perovskite__R050456__Raman__532__0__unoriented__Raman_Data_Processed__30866.txt
30, 0.0
36, 0.0
42, 0.0
48, 0.0
54, 0.0
60, 0.0
66, 0.0
72, 0.0
78, 0.0
84, 0.0
90, 0.0
96, 0.0
102, 0.0
108, 0.0
114, 0.0
120, 0.0
126, 0.0
132, 0.0
138, 0.0
144, 0.0
150, 0.0
156, 0.0
162, 0.0
168.0, 0.0184662
174.0, 0.10319
180.0, 0.144236
186.0, 0.0778433
192.0, 0.0175919
198.0, 0.00580252
204.0, 0.0194149
210.0, 0.0283993
216.0, 0.101408
222.0, 0.168358
228.0, 0.178616
234.0, 0.252887
240.0, 0.407446
246.0, 0.364482
252.0, 0.107391
258.0, 0.00586586
264.0, 0.0267285
270.0, 0.0287094
276.0, 0.159587
282.0, 0.240793
288.0, 0.227451
294.0, 0.206101
300.0, 0.165784
306.0, 0.163416
312.0, 0.161363
318.0, 0.185072
324.0, 0.241808
330.0, 0.338458
336.0, 0.380071
342.0, 0.336477
348.0, 0.279832
354.0, 0.239138
360.0, 0.215945
366.0, 0.185178
372.0, 0.181798
378.0, 0.180826
384.0, 0.198327
390.0, 0.177784
396.0, 0.152705
402.0, 0.127028
408.0, 0.0866924
414.0, 0.0550178
420.0, 0.0149277
426.0, 0.0104602
432.0, 0.0268954
438.0, 0.0171594
444.0, 0.0107451
450.0, 0.064229
456.0, 0.143952
462.0, 0.241398
468.0, 0.228004
474.0, 0.171627
480.0, 0.212131
486.0, 0.263468
492.0, 0.278475
498.0, 0.284733
504.0, 0.298939
510.0, 0.309633
516.0, 0.30533
522.0, 0.314524
528.0, 0.314514
534.0, 0.286175
540.0, 0.250782
546.0, 0.200149
552.0, 0.146518
558.0, 0.106216
564.0, 0.0703318
570.0, 0.036116
576.0, 0.0130488
582.0, 0.00769608
588.0, 0.0110473
594.0, 0.00640376
600.0, 0.0045563
606.0, 0.0159575
612.0, 0.0488155
618.0, 0.0564121
624.0, 0.0903497
630.0, 0.109585
636.0, 0.122683
642.0, 0.136871
648.0, 0.135323
654.0, 0.125818
660.0, 0.100493
666.0, 0.0790129
672.0, 0.0639026
678.0, 0.0473142
684.0, 0.0300619
690.0, 0.0139792
696.0, 0.00328944
702.0, 0.0149642
708.0, 0.016888
714.0, 0.00449961
720.0, 0.0152895
726.0, 0.0525648
732.0, 0.101964
738.0, 0.163331
744.0, 0.262961
750.0, 0.373614
756.0, 0.506778
762.0, 0.657305
768.0, 0.764527
774.0, 0.874774
780.0, 0.964122
786.0, 0.999439
792.0, 0.982728
798.0, 0.903515
804.0, 0.76705
810.0, 0.627143
816.0, 0.506547
822.0, 0.425975
828.0, 0.368669
834.0, 0.333833
840.0, 0.277176
846.0, 0.205055
852.0, 0.119449
858.0, 0.0673988
864.0, 0.0347575
870.0, 0.000308738
876.0, 0.00930843
882.0, 0.0100421
888.0, 0.00753134
894.0, 0.00704267
900.0, 0.000849433
906.0, 0.00950233
912.0, 0.0178909
918.0, 0.0263315
924.0, 0.028357
930.0, 0.032437
936.0, 0.0304945
942.0, 0.0293878
948.0, 0.0247762
954.0, 0.0202105
960.0, 0.0153581
966.0, 0.00999369
972.0, 0.0110129
978.0, 0.017914
984.0, 0.0106121
990.0, 0.0105282
996.0, 0.0114294
1002.0, 0.0163864
1008.0, 0.0116625
1014.0, 0.0175197
1020.0, 0.0218488
1026.0, 0.0253838
1032.0, 0.0194564
1038.0, 0.0243865
1044.0, 0.0205227
1050.0, 0.0191442
1056.0, 0.0149375
1062.0, 0.0166985
1068.0, 0.0152959
1074.0, 0.0121747
1080.0, 0.012044
1086.0, 0.00631943
1092.0, 0.00198781
1098.0, 0.00185898
1104.0, 0.00333373
1110.0, 0.000195365
1116.0, 0.00218285
1122.0, 0.00348131
1128.0, 0.00301672
1134.0, 0.00138873
1140.0, 0.000460789
1146.0, 0.00327869
1152.0, 0.00229964
1158.0, 0.00346493
1164.0, 0.00118663
1170.0, 0.00527145
1176.0, 0.00139731
1182.0, 0.00621198
1188.0, 0.00596815
1194.0, 0.00540486
1200.0, 0.0060266
1206.0, 0.00611044
1212.0, 0.00282451
1218.0, 0.00330252
1224.0, 0.00439759
1230.0, 0.00313071
1236.0, 0.000916259
1242.0, 0.00215919
1248.0, 0.00505047
1254.0, 0.000318925
1260.0, 0.00512817
1266.0, 0.000672414
1272.0, 0.00261277
1278.0, 0.00582861
1284.0, 0.000702268
1290, 0.0
1296, 0.0
1302, 0.0
1308, 0.0
1314, 0.0
1320, 0.0
1326, 0.0
1332, 0.0
1338, 0.0
1344, 0.0
1350, 0.0
1356, 0.0
1362, 0.0
1368, 0.0
1374, 0.0
1380, 0.0
1386, 0.0
1392, 0.0
1398, 0.0
1404, 0.0
1410, 0.0
1416, 0.0
1422, 0.0
1428, 0.0
1434, 0.0
1440, 0.0
1446, 0.0
1452, 0.0
1458, 0.0
1464, 0.0
1470, 0.0
1476, 0.0
1482, 0.0
1488, 0.0
1494, 0.0
1500, 0.0
1506, 0.0
1512, 0.0
1518, 0.0
1524, 0.0
1530, 0.0
1536, 0.0
1542, 0.0
1548, 0.0
1554, 0.0
1560, 0.0
1566, 0.0
1572, 0.0
1578, 0.0
1584, 0.0
1590, 0.0
1596, 0.0
1599, 0.0

File: Perovskite__R120121__Raman__532__0__unoriented__Raman_Data_Processed__37138.txt
30, 0.0
36, 0.0
42, 0.0
48, 0.0
54, 0.0
60, 0.0
66, 0.0
72, 0.0
78, 0.0
84, 0.0
90, 0.0
96, 0.0
102, 0.0
108, 0.0
114, 0.0
120, 0.0
126, 0.0
132, 0.0
138, 0.0
144, 0.0
150, 0.0
156, 0.0
162, 0.0
168, 0.0
174, 0.0
180, 0.0
186, 0.0
192, 0.0
198, 0.0
204.0, 0.00808633
210.0, 0.0858889
216.0, 0.246548
222.0, 0.320715
228.0, 0.32702
234.0, 0.691144
240.0, 0.991232
246.0, 0.515092
252.0, 0.122561
258.0, 0.010466
264.0, 0.0267842
270.0, 0.0526593
276.0, 0.103185
282.0, 0.087684
288.0, 0.0816748
294.0, 0.0599521
300.0, 0.0610945
306.0, 0.05394
312.0, 0.0724119
318.0, 0.112146
324.0, 0.212254
330.0, 0.317278
336.0, 0.31119
342.0, 0.29364
348.0, 0.253427
354.0, 0.198851
360.0, 0.158725
366.0, 0.147718
372.0, 0.156971
378.0, 0.17714
384.0, 0.190907
390.0, 0.202669
396.0, 0.219331
402.0, 0.182289
408.0, 0.12872
414.0, 0.0562745
420.0, 0.00120624
426.0, 0.0259426
432.0, 0.00607245
438.0, 0.0300739
444.0, 0.0435967
450.0, 0.0890694
456.0, 0.181108
462.0, 0.31991
468.0, 0.366322
474.0, 0.2336
480.0, 0.156688
486.0, 0.139114
492.0, 0.131639
498.0, 0.111335
504.0, 0.0812178
510.0, 0.0668908
516.0, 0.0586044
522.0, 0.0650096
528.0, 0.0793439
534.0, 0.0731569
540.0, 0.0521212
546.0, 0.0250418
552.0, 0.0168942
558.0, 0.00403966
564.0, 0.0111516
570.0, 0.00578786
576.0, 0.000659754
582.0, 0.0163559
588.0, 0.0355653
594.0, 0.0543605
600.0, 0.0786389
606.0, 0.1045
612.0, 0.138771
618.0, 0.176971
624.0, 0.201204
630.0, 0.215862
636.0, 0.223832
642.0, 0.22111
648.0, 0.210479
654.0, 0.200944
660.0, 0.192098
666.0, 0.174616
672.0, 0.154842
678.0, 0.127986
684.0, 0.0952375
690.0, 0.0659701
696.0, 0.0338134
702.0, 0.00504376
708.0, 0.00646524
714.0, 0.0147758
720.0, 0.00581635
726.0, 0.0109169
732.0, 0.0469067
738.0, 0.0884139
744.0, 0.148351
750.0, 0.214861
756.0, 0.297541
762.0, 0.400135
768.0, 0.514002
774.0, 0.621361
780.0, 0.711159
786.0, 0.766512
792.0, 0.767507
798.0, 0.707298
804.0, 0.601769
810.0, 0.476793
816.0, 0.360522
822.0, 0.268945
828.0, 0.190859
834.0, 0.139595
840.0, 0.0990374
846.0, 0.0693125
852.0, 0.0390417
858.0, 0.0174692
864.0, 0.00132168
870.0, 0.00064025
876.0, 0.00673263
882.0, 0.00668882
888.0, 0.00177493
894.0, 0.00151743
900.0, 0.00865909
906.0, 0.013464
912.0, 0.0184954
918.0, 0.0242096
924.0, 0.0277907
930.0, 0.0301388
936.0, 0.0268352
942.0, 0.0249487
948.0, 0.0159357
954.0, 0.0106409
960.0, 0.00889791
966.0, 0.00818299
972.0, 0.00919043
978.0, 0.00725011
984.0, 0.00471194
990.0, 0.00722161
996.0, 0.00896647
1002.0, 0.0072089
1008.0, 0.0123767
1014.0, 0.016842
1020.0, 0.0321398
1026.0, 0.0178238
1032.0, 0.0201163
1038.0, 0.018089
1044.0, 0.0189593
1050.0, 0.0205497
1056.0, 0.0151656
1062.0, 0.0160314
1068.0, 0.0112861
1074.0, 0.01076
1080.0, 0.00761761
1086.0, 0.00903894
1092.0, 0.00585701
1098.0, 0.00296761
1104.0, 0.000659373
1110.0, 0.000269251
1116.0, 0.000875979
1122.0, 0.000163516
1128.0, 4.43873e-05
1134.0, 0.00133414
1140.0, 0.00064314
1146.0, 0.0023154
1152.0, 0.00346495
1158.0, 0.0028069
1164.0, 0.00365281
1170.0, 0.00257259
1176.0, 0.00584641
1182.0, 0.00612441
1188.0, 0.00558437
1194.0, 0.00493905
1200.0, 0.00496626
1206.0, 0.00589532
1212.0, 0.00564579
1218.0, 0.00248697
1224.0, 0.00383942
1230.0, 0.00225876
1236.0, 0.000772115
1242.0, 0.00145357
1248.0, 0.00255419
1254.0, 0.00376194
1260.0, 0.00270168
1266.0, 0.00446051
1272.0, 0.00212979
1278.0, 0.00219696
1284.0, 0.00371385
1290.0, 0.00282548
1296.0, 0.000487137
1302, 0.0
1308, 0.0
1314, 0.0
1320, 0.0
1326, 0.0
1332, 0.0
1338, 0.0
1344, 0.0
1350, 0.0
1356, 0.0
1362, 0.0
1368, 0.0
1374, 0.0
1380, 0.0
1386, 0.0
1392, 0.0
1398, 0.0
1404, 0.0
1410, 0.0
1416, 0.0
1422, 0.0
1428, 0.0
1434, 0.0
1440, 0.0
1446, 0.0
1452, 0.0
1458, 0.0
1464, 0.0
1470, 0.0
1476, 0.0
1482, 0.0
1488, 0.0
1494, 0.0
1500, 0.0
1506, 0.0
1512, 0.0
1518, 0.0
1524, 0.0
1530, 0.0
1536, 0.0
1542, 0.0
1548, 0.0
1554, 0.0
1560, 0.0
1566, 0.0
1572, 0.0
1578, 0.0
1584, 0.0
1590, 0.0
1596, 0.0
1599, 0.0

File: Perovskite__R120121__Raman__780__0__unoriented__Raman_Data_Processed__37140.txt
30, 0.0
36, 0.0
42, 0.0
48, 0.0
54, 0.0
60, 0.0
66, 0.0
72, 0.0
78, 0.0
84, 0.0
90, 0.0
96, 0.0
102.0, 0.000610773
108.0, 0.0253211
114.0, 0.0612128
120.0, 0.0891082
126.0, 0.103647
132.0, 0.110314
138.0, 0.107969
144.0, 0.108111
150.0, 0.0966207
156.0, 0.0846892
162.0, 0.0785055
168.0, 0.08846
174.0, 0.095969
180.0, 0.0518968
186.0, 0.0267465
192.0, 0.0115319
198.0, 0.000406285
204.0, 0.00327252
210.0, 0.000392921
216.0, 0.00941765
222.0, 0.00837673
228.0, 0.00241947
234.0, 0.0601002
240.0, 0.0853541
246.0, 0.0838339
252.0, 0.134564
258.0, 0.238038
264.0, 0.340977
270.0, 0.440889
276.0, 0.494701
282.0, 0.466394
288.0, 0.341034
294.0, 0.22146
300.0, 0.123442
306.0, 0.0860651
312.0, 0.0812966
318.0, 0.063399
324.0, 0.0143068
330.0, 0.0185226
336.0, 0.00854208
342.0, 0.0690452
348.0, 0.2154
354.0, 0.414012
360.0, 0.615397
366.0, 0.724789
372.0, 0.725847
378.0, 0.635997
384.0, 0.557147
390.0, 0.48901
396.0, 0.491621
402.0, 0.594718
408.0, 0.73103
414.0, 0.893353
420.0, 0.991405
426.0, 0.951546
432.0, 0.769111
438.0, 0.50031
444.0, 0.238741
450.0, 0.0525498
456.0, 0.0290039
462.0, 0.0132686
468.0, 0.0599304
474.0, 0.151122
480.0, 0.227322
486.0, 0.266279
492.0, 0.305076
498.0, 0.350417
504.0, 0.386617
510.0, 0.386364
516.0, 0.3211
522.0, 0.21255
528.0, 0.0945372
534.0, 0.0146689
540.0, 0.0050559
546.0, 0.0396453
552.0, 0.149649
558.0, 0.274262
564.0, 0.358333
570.0, 0.372626
576.0, 0.332627
582.0, 0.270644
588.0, 0.222369
594.0, 0.159069
600.0, 0.1092
606.0, 0.0820329
612.0, 0.0533996
618.0, 0.0280907
624.0, 0.0134316
630.0, 0.0011057
636.0, 0.00945667
642.0, 0.00891194
648.0, 0.0043015
654.0, 0.00175986
660.0, 0.0235025
666.0, 0.0416312
672.0, 0.0652661
678.0, 0.0912352
684.0, 0.117909
690.0, 0.14358
696.0, 0.162961
702.0, 0.181348
708.0, 0.193559
714.0, 0.195904
720.0, 0.188693
726.0, 0.179938
732.0, 0.166222
738.0, 0.150313
744.0, 0.124331
750.0, 0.101439
756.0, 0.085792
762.0, 0.0677007
768.0, 0.0499672
774.0, 0.0351127
780.0, 0.0250789
786.0, 0.016024
792.0, 0.00466524
798.0, 6.34309e-05
804.0, 0.00587916
810.0, 0.00627158
816.0, 0.000679318
822.0, 0.00812542
828.0, 0.0237553
834.0, 0.0400453
840.0, 0.0722298
846.0, 0.114738
852.0, 0.158588
858.0, 0.207536
864.0, 0.247875
870.0, 0.273003
876.0, 0.279268
882.0, 0.277426
888.0, 0.250263
894.0, 0.224498
900.0, 0.188733
906.0, 0.153009
912.0, 0.118998
918.0, 0.0948607
924.0, 0.0653888
930.0, 0.0379339
936.0, 0.0155139
942.0, 0.00204426
948.0, 0.00474676
954.0, 0.00194703
960.0, 0.00419052
966.0, 0.0137951
972.0, 0.0290032
978.0, 0.0454055
984.0, 0.0659263
990.0, 0.0886761
996.0, 0.116875
1002.0, 0.129969
1008.0, 0.12997
1014.0, 0.11857
1020.0, 0.101813
1026.0, 0.0787235
1032.0, 0.0553795
1038.0, 0.0374032
1044.0, 0.0180917
1050.0, 0.00894122
1056.0, 0.00291264
1062.0, 0.000813376
1068.0, 0.000953819
1074.0, 0.00065633
1080.0, 0.0015812
1086.0, 0.00752339
1092.0, 0.00992982
1098.0, 0.0122062
1104.0, 0.0139797
1110.0, 0.0166166
1116.0, 0.0141299
1122.0, 0.0155511
1128.0, 0.0168315
1134.0, 0.0154713
1140.0, 0.0196734
1146.0, 0.0225872
1152.0, 0.0273952
1158.0, 0.0310689
1164.0, 0.0392627
1170.0, 0.0464726
1176.0, 0.0607531
1182.0, 0.067562
1188.0, 0.067633
1194.0, 0.0711692
1200.0, 0.0719814
1206.0, 0.0625126
1212.0, 0.0513984
1218.0, 0.0307794
1224.0, 0.00879178
1230.0, 0.00544086
1236.0, 0.00476809
1242.0, 0.00863888
1248.0, 0.0154594
1254.0, 0.0305523
1260.0, 0.0227853
1266.0, 0.0186095
1272.0, 0.0180385
1278.0, 0.0104249
1284, 0.0
1290, 0.0
1296, 0.0
1302, 0.0
1308, 0.0
1314, 0.0
1320, 0.0
1326, 0.0
1332, 0.0
1338, 0.0
1344, 0.0
1350, 0.0
1356, 0.0
1362, 0.0
1368, 0.0
1374, 0.0
1380, 0.0
1386, 0.0
1392, 0.0
1398, 0.0
1404, 0.0
1410, 0.0
1416, 0.0
1422, 0.0
1428, 0.0
1434, 0.0
1440, 0.0
1446, 0.0
1452, 0.0
1458, 0.0
1464, 0.0
1470, 0.0
1476, 0.0
1482, 0.0
1488, 0.0
1494, 0.0
1500, 0.0
1506, 0.0
1512, 0.0
1518, 0.0
1524, 0.0
1530, 0.0
1536, 0.0
1542, 0.0
1548, 0.0
1554, 0.0
1560, 0.0
1566, 0.0
1572, 0.0
1578, 0.0
1584, 0.0
1590, 0.0
1596, 0.0
1599, 0.0

File: Perovskite__R130037__Raman__532__0__unoriented__Raman_Data_Processed__37778.txt
30, 0.0
36, 0.0
42, 0.0
48, 0.0
54, 0.0
60, 0.0
66, 0.0
72, 0.0
78, 0.0
84, 0.0
90, 0.0
96, 0.0
102, 0.0
108, 0.0
114, 0.0
120, 0.0
126, 0.0
132, 0.0
138, 0.0
144, 0.0
150, 0.0
156, 0.0
162, 0.0
168, 0.0
174, 0.0
180.0, 0.00125685
186.0, 0.0417986
192.0, 0.0945712
198.0, 0.167273
204.0, 0.205901
210.0, 0.219792
216.0, 0.297031
222.0, 0.428159
228.0, 0.612936
234.0, 0.831272
240.0, 0.987847
246.0, 0.793702
252.0, 0.384226
258.0, 0.189457
264.0, 0.0957949
270.0, 0.0398271
276.0, 0.0369361
282.0, 0.0208464
288.0, 0.00798102
294.0, 0.0126428
300.0, 0.023439
306.0, 0.0833862
312.0, 0.115644
318.0, 0.218445
324.0, 0.260586
330.0, 0.32637
336.0, 0.328749
342.0, 0.275874
348.0, 0.219159
354.0, 0.135136
360.0, 0.101967
366.0, 0.0922117
372.0, 0.078519
378.0, 0.0408209
384.0, 0.0343481
390.0, 0.0140869
396.0, 0.0166228
402.0, 0.0176856
408.0, 0.0117913
414.0, 0.00167817
420.0, 0.0117071
426.0, 0.00401772
432.0, 0.0212417
438.0, 0.0776754
444.0, 0.187123
450.0, 0.373071
456.0, 0.669681
462.0, 0.781842
468.0, 0.393042
474.0, 0.162207
480.0, 0.075018
486.0, 0.0590245
492.0, 0.0690625
498.0, 0.0684354
504.0, 0.0996209
510.0, 0.106706
516.0, 0.133893
522.0, 0.149073
528.0, 0.155646
534.0, 0.157834
540.0, 0.143588
546.0, 0.131159
552.0, 0.109149
558.0, 0.112737
564.0, 0.0966288
570.0, 0.063907
576.0, 0.0505095
582.0, 0.0319132
588.0, 0.0346218
594.0, 0.0178065
600.0, 0.00178568
606.0, 0.00346702
612.0, 0.00191139
618.0, 0.00694847
624.0, 0.00416019
630.0, 0.00660195
636.0, 0.0196931
642.0, 0.0369556
648.0, 0.0389256
654.0, 0.0214905
660.0, 0.034167
666.0, 0.0251453
672.0, 0.01853
678.0, 0.0160194
684.0, 0.0117829
690.0, 0.00774082
696.0, 0.00279467
702.0, 0.0165052
708.0, 0.00413665
714.0, 0.00996674
720.0, 0.0203572
726.0, 0.0172175
732.0, 0.0410581
738.0, 0.0833038
744.0, 0.118712
750.0, 0.178567
756.0, 0.248609
762.0, 0.326691
768.0, 0.400499
774.0, 0.500262
780.0, 0.545085
786.0, 0.580928
792.0, 0.613747
798.0, 0.600988
804.0, 0.573228
810.0, 0.551497
816.0, 0.536774
822.0, 0.503693
828.0, 0.469428
834.0, 0.376679
840.0, 0.323598
846.0, 0.243121
852.0, 0.171204
858.0, 0.112794
864.0, 0.0688472
870.0, 0.0341177
876.0, 0.0146216
882.0, 0.00691623
888.0, 0.0123402
894.0, 0.00219666
900.0, 0.0011869
906.0, 0.0119826
912.0, 0.00241768
918.0, 0.0114469
924.0, 0.0169542
930.0, 0.0246317
936.0, 0.0271471
942.0, 0.030822
948.0, 0.0267539
954.0, 0.0142807
960.0, 0.0251064
966.0, 0.0205508
972.0, 0.0159253
978.0, 0.024245
984.0, 0.0241712
990.0, 0.0229432
996.0, 0.0211122
1002.0, 0.0127348
1008.0, 0.0194087
1014.0, 0.0126099
1020.0, 0.0118632
1026.0, 0.014177
1032.0, 0.0179184
1038.0, 0.0177544
1044.0, 0.0212487
1050.0, 0.0108838
1056.0, 0.0102298
1062.0, 0.00921532
1068.0, 0.00189461
1074.0, 0.00752684
1080.0, 0.00814926
1086.0, 0.0138978
1092.0, 0.00825404
1098.0, 0.00263912
1104.0, 0.0100021
1110.0, 0.00732045
1116.0, 0.012228
1122.0, 0.0207652
1128.0, 0.00807356
1134.0, 0.00655264
1140.0, 0.00200485
1146.0, 0.0128268
1152.0, 0.00702521
1158.0, 0.00906659
1164.0, 0.0051454
1170.0, 0.00312353
1176.0, 0.00554793
1182.0, 0.00939766
1188.0, 0.0139938
1194.0, 0.00835597
1200.0, 0.00870789
1206.0, 0.00596586
1212.0, 0.012684
1218.0, 0.00355708
1224.0, 0.0101369
1230.0, 0.0151365
1236.0, 0.00142111
1242.0, 0.0103357
1248.0, 0.0208899
1254.0, 0.00362738
1260.0, 0.013719
1266.0, 0.0172076
1272.0, 0.01098
1278.0, 0.0210623
1284.0, 0.00492191
1290.0, 0.0142222
1296.0, 0.00305546
1302, 0.0
1308, 0.0
1314, 0.0
1320, 0.0
1326, 0.0
1332, 0.0
1338, 0.0
1344, 0.0
1350, 0.0
1356, 0.0
1362, 0.0
1368, 0.0
1374, 0.0
1380, 0.0
1386, 0.0
1392, 0.0
1398, 0.0
1404, 0.0
1410, 0.0
1416, 0.0
1422, 0.0
1428, 0.0
1434, 0.0
1440, 0.0
1446, 0.0
1452, 0.0
1458, 0.0
1464, 0.0
1470, 0.0
1476, 0.0
1482, 0.0
1488, 0.0
1494, 0.0
1500, 0.0
1506, 0.0
1512, 0.0
1518, 0.0
1524, 0.0
1530, 0.0
1536, 0.0
1542, 0.0
1548, 0.0
1554, 0.0
1560, 0.0
1566, 0.0
1572, 0.0
1578, 0.0
1584, 0.0
1590, 0.0
1596, 0.0
1599, 0.0

File: Perovskite__R130037__Raman__780__0__unoriented__Raman_Data_Processed__37548.txt
30, 0.0
36, 0.0
42, 0.0
48, 0.0
54, 0.0
60, 0.0
66, 0.0
72, 0.0
78, 0.0
84, 0.0
90, 0.0
96.0, 0.100366
102.0, 0.0172971
108.0, 0.0027918
114.0, 0.0642804
120.0, 0.0782211
126.0, 0.0603951
132.0, 0.0433964
138.0, 0.072342
144.0, 0.0533799
150.0, 0.034658
156.0, 0.0384387
162.0, 0.0414564
168.0, 0.0179791
174.0, 0.0106215
180.0, 0.0054644
186.0, 0.00591329
192.0, 0.0137356
198.0, 0.0354234
204.0, 0.0545702
210.0, 0.0850465
216.0, 0.110121
222.0, 0.161043
228.0, 0.23649
234.0, 0.291882
240.0, 0.265085
246.0, 0.146697
252.0, 0.060523
258.0, 0.0215923
264.0, 0.00953964
270.0, 0.0211042
276.0, 0.0331488
282.0, 0.0218954
288.0, 0.0231284
294.0, 0.0261861
300.0, 0.0272234
306.0, 0.0668302
312.0, 0.0746809
318.0, 0.115375
324.0, 0.144798
330.0, 0.154229
336.0, 0.143717
342.0, 0.115476
348.0, 0.104591
354.0, 0.0862612
360.0, 0.0776715
366.0, 0.05416
372.0, 0.0492668
378.0, 0.0363429
384.0, 0.0334186
390.0, 0.0182822
396.0, 0.00682424
402.0, 0.00796578
408.0, 0.0138458
414.0, 0.00726727
420.0, 0.00395581
426.0, 0.0110407
432.0, 0.00622376
438.0, 0.0487393
444.0, 0.117582
450.0, 0.185664
456.0, 0.298425
462.0, 0.282092
468.0, 0.160374
474.0, 0.1034
480.0, 0.0835269
486.0, 0.0656599
492.0, 0.0500206
498.0, 0.0731839
504.0, 0.0561183
510.0, 0.072386
516.0, 0.0700215
522.0, 0.0701247
528.0, 0.074841
534.0, 0.0776624
540.0, 0.0635003
546.0, 0.0626464
552.0, 0.0508791
558.0, 0.0564924
564.0, 0.0325355
570.0, 0.0344937
576.0, 0.0131089
582.0, 0.014599
588.0, 0.0106404
594.0, 0.0119018
600.0, 0.0035991
606.0, 0.00366833
612.0, 0.000283707
618.0, 0.00763421
624.0, 0.0265859
630.0, 0.0270678
636.0, 0.0517011
642.0, 0.0595822
648.0, 0.0467668
654.0, 0.02648
660.0, 0.0249159
666.0, 0.0124064
672.0, 0.0122392
678.0, 0.00994022
684.0, 0.0166211
690.0, 0.0156638
696.0, 0.0202997
702.0, 0.00245428
708.0, 0.0258444
714.0, 0.0665446
720.0, 0.118966
726.0, 0.200541
732.0, 0.310738
738.0, 0.4447
744.0, 0.577986
750.0, 0.721356
756.0, 0.827275
762.0, 0.929623
768.0, 0.975378
774.0, 0.962965
780.0, 0.941591
786.0, 0.880093
792.0, 0.813434
798.0, 0.720007
804.0, 0.614143
810.0, 0.548332
816.0, 0.477641
822.0, 0.419698
828.0, 0.355456
834.0, 0.273618
840.0, 0.188672
846.0, 0.131621
852.0, 0.0886906
858.0, 0.0469842
864.0, 0.0135823
870.0, 0.00189279
876.0, 0.00905322
882.0, 0.0055058
888.0, 0.00946023
894.0, 0.00185044
900.0, 0.0199082
906.0, 0.0160758
912.0, 0.0358157
918.0, 0.0529795
924.0, 0.0517924
930.0, 0.0660916
936.0, 0.0591014
942.0, 0.0661027
948.0, 0.0521228
954.0, 0.0525682
960.0, 0.0515805
966.0, 0.0456689
972.0, 0.0356445
978.0, 0.0334315
984.0, 0.0315026
990.0, 0.0242886
996.0, 0.0237745
1002.0, 0.016355
1008.0, 0.0275712
1014.0, 0.0136957
1020.0, 0.0191994
1026.0, 0.0100865
1032.0, 0.00192081
1038.0, 0.0113027
1044.0, 0.0207867
1050.0, 0.0180121
1056.0, 0.0133681
1062.0, 0.00665272
1068.0, 0.00186282
1074.0, 0.0103998
1080.0, 0.00839952
1086.0, 0.00933068
1092.0, 0.0141827
1098.0, 0.00518663
1104.0, 0.00492383
1110.0, 0.00381326
1116.0, 0.00372732
1122.0, 0.000947477
1128.0, 0.0089673
1134.0, 0.0035053
1140.0, 0.00525952
1146.0, 0.00779406
1152.0, 0.00897443
1158.0, 0.0103253
1164.0, 0.0120561
1170.0, 0.0211509
1176.0, 0.011848
1182.0, 0.0140639
1188.0, 0.010418
1194.0, 0.0139375
1200.0, 0.0112336
1206.0, 0.0159853
1212.0, 0.00769614
1218.0, 0.00714797
1224.0, 0.00710228
1230.0, 0.0114225
1236.0, 0.0083907
1242.0, 0.00395497
1248.0, 0.0167574
1254.0, 0.00522236
1260.0, 0.010504
1266.0, 0.00699108
1272.0, 0.00134992
1278.0, 0.00230234
1284, 0.0
1290, 0.0
1296, 0.0
1302, 0.0
1308, 0.0
1314, 0.0
1320, 0.0
1326, 0.0
1332, 0.0
1338, 0.0
1344, 0.0
1350, 0.0
1356, 0.0
1362, 0.0
1368, 0.0
1374, 0.0
1380, 0.0
1386, 0.0
1392, 0.0
1398, 0.0
1404, 0.0
1410, 0.0
1416, 0.0
1422, 0.0
1428, 0.0
1434, 0.0
1440, 0.0
1446, 0.0
1452, 0.0
1458, 0.0
1464, 0.0
1470, 0.0
1476, 0.0
1482, 0.0
1488, 0.0
1494, 0.0
1500, 0.0
1506, 0.0
1512, 0.0
1518, 0.0
1524, 0.0
1530, 0.0
1536, 0.0
1542, 0.0
1548, 0.0
1554, 0.0
1560, 0.0
1566, 0.0
1572, 0.0
1578, 0.0
1584, 0.0
1590, 0.0
1596, 0.0
1599, 0.0