Folder: 1D_CNN_For_Mineral_Classification/raw data/Dataset_2/Protoferroanthophyllite

File: Protoferroanthophyllite__R060053__Raman__514__0__unoriented__Raman_Data_Processed__7882.txt
30, 0.0
36, 0.0
42, 0.0
48, 0.0
54, 0.0
60, 0.0
66, 0.0
72, 0.0
78, 0.0
84, 0.0
90.0, 0.00300844
96.0, 0.0112264
102.0, 0.00160292
108.0, 0.00135318
114.0, 0.00989877
120.0, 0.0167624
126.0, 0.0109993
132.0, 0.0243463
138.0, 0.0530026
144.0, 0.095289
150.0, 0.163071
156.0, 0.0928561
162.0, 0.0476604
168.0, 0.129542
174.0, 0.329535
180.0, 0.426612
186.0, 0.313618
192.0, 0.196205
198.0, 0.138268
204.0, 0.129658
210.0, 0.119061
216.0, 0.106978
222.0, 0.0998606
228.0, 0.076831
234.0, 0.0571869
240.0, 0.0425178
246.0, 0.0302879
252.0, 0.0267303
258.0, 0.0177355
264.0, 0.00662252
270.0, 0.00282738
276.0, 0.00422831
282.0, 0.00209972
288.0, 0.00260815
294.0, 0.00711814
300.0, 0.0131038
306.0, 0.0218647
312.0, 0.0318185
318.0, 0.0290338
324.0, 0.0198658
330.0, 0.0264218
336.0, 0.0472745
342.0, 0.0699419
348.0, 0.064936
354.0, 0.0580642
360.0, 0.0772827
366.0, 0.153977
372.0, 0.276587
378.0, 0.27527
384.0, 0.180177
390.0, 0.0994512
396.0, 0.0708003
402.0, 0.054038
408.0, 0.0321118
414.0, 0.0227394
420.0, 0.016325
426.0, 0.00653193
432.0, 0.00551288
438.0, 0.00134587
444.0, 0.00215578
450.0, 0.000739285
456.0, 0.00335238
462.0, 0.0101173
468.0, 0.00969256
474.0, 0.00619469
480.0, 0.00665044
486.0, 0.00691449
492.0, 0.0155193
498.0, 0.0237314
504.0, 0.0489027
510.0, 0.0854325
516.0, 0.148322
522.0, 0.162758
528.0, 0.091382
534.0, 0.0417288
540.0, 0.0213944
546.0, 0.0130563
552.0, 0.00970897
558.0, 0.0068027
564.0, 0.00535093
570.0, 0.0018718
576.0, 0.000616678
582.0, 0.00132259
588.0, 0.000365082
594.0, 0.00121285
600.0, 0.000832921
606.0, 0.00318239
612.0, 0.00449273
618.0, 0.0103701
624.0, 0.0213541
630.0, 0.0377288
636.0, 0.0524367
642.0, 0.0762821
648.0, 0.161154
654.0, 0.401922
660.0, 0.912024
666.0, 0.761513
672.0, 0.292253
678.0, 0.136165
684.0, 0.0837512
690.0, 0.0642213
696.0, 0.0445794
702.0, 0.031805
708.0, 0.0242223
714.0, 0.0183854
720.0, 0.0187286
726.0, 0.0188942
732.0, 0.0245305
738.0, 0.0453337
744.0, 0.0500493
750.0, 0.0353295
756.0, 0.0218758
762.0, 0.0112855
768.0, 0.0108002
774.0, 0.0109546
780.0, 0.00755545
786.0, 0.00386057
792.0, 0.00052686
798.0, 0.00164368
804.0, 0.00169575
810.0, 0.0029376
816.0, 0.00129185
822.0, 0.000324634
828.0, 0.00144515
834.0, 0.000502643
840.0, 0.00121089
846.0, 0.000435196
852.0, 0.00146441
858.0, 0.00218815
864.0, 0.000716179
870.0, 0.00301778
876.0, 0.00423553
882.0, 0.00669795
888.0, 0.0142064
894.0, 0.0225072
900.0, 0.0360446
906.0, 0.0574058
912.0, 0.087225
918.0, 0.0916611
924.0, 0.0652244
930.0, 0.04593
936.0, 0.0375652
942.0, 0.0360247
948.0, 0.0349453
954.0, 0.0376199
960.0, 0.0453389
966.0, 0.0725354
972.0, 0.117477
978.0, 0.116936
984.0, 0.1018
990.0, 0.123385
996.0, 0.173679
1002.0, 0.178329
1008.0, 0.138545
1014.0, 0.153073
1020.0, 0.248797
1026.0, 0.44881
1032.0, 0.432954
1038.0, 0.229491
1044.0, 0.123414
1050.0, 0.0792583
1056.0, 0.0589514
1062.0, 0.0437039
1068.0, 0.0346292
1074.0, 0.0281506
1080.0, 0.0298133
1086.0, 0.0390017
1092.0, 0.0308563
1098.0, 0.0346127
1104.0, 0.0323226
1110.0, 0.0199856
1116.0, 0.0145661
1122.0, 0.0248949
1128.0, 0.0140556
1134.0, 0.00710924
1140.0, 0.00606437
1146.0, 0.00482668
1152.0, 0.00172182
1158.0, 0.00256385
1164.0, 0.00227527
1170.0, 0.000154509
1176.0, 0.00171225
1182.0, 0.000854921
1188.0, 0.0019516
1194.0, 0.000647653
1200.0, 0.000983979
1206.0, 0.000866815
1212.0, 0.00307154
1218.0, 0.000402472
1224.0, 0.00285916
1230.0, 0.00158508
1236.0, 0.0013749
1242.0, 0.00373841
1248.0, 0.00238473
1254.0, 0.00248898
1260.0, 0.005031
1266.0, 0.0045791
1272.0, 0.00365927
1278.0, 0.004259
1284.0, 0.00113762
1290.0, 0.00482356
1296.0, 0.00241041
1302.0, 0.00378882
1308.0, 0.00578802
1314.0, 0.00409675
1320.0, 0.00278222
1326.0, 0.000750962
1332.0, 0.00347073
1338.0, 0.00186891
1344.0, 0.00304381
1350.0, 0.00358974
1356.0, 0.00106151
1362.0, 0.00459203
1368.0, 0.000324764
1374.0, 0.00104225
1380.0, 0.00232369
1386.0, 0.00443549
1392.0, 0.0043527
1398.0, 0.00122328
1404.0, 0.00317814
1410.0, 0.000590212
1416.0, 0.00304978
1422.0, 0.00259914
1428.0, 0.00235595
1434.0, 0.004344
1440.0, 0.00150713
1446.0, 0.00348343
1452.0, 0.00372646
1458.0, 0.00287086
1464.0, 0.00495337
1470.0, 0.00476712
1476.0, 0.00207467
1482.0, 0.00352758
1488.0, 0.00308472
1494.0, 0.00600463
1500.0, 0.00224967
1506.0, 0.00323029
1512.0, 0.00120406
1518.0, 0.00147773
1524, 0.0
1530, 0.0
1536, 0.0
1542, 0.0
1548, 0.0
1554, 0.0
1560, 0.0
1566, 0.0
1572, 0.0
1578, 0.0
1584, 0.0
1590, 0.0
1596, 0.0
1599, 0.0

File: Protoferroanthophyllite__R060053__Raman__532__0__unoriented__Raman_Data_Processed__16814.txt
30, 0.0
36, 0.0
42, 0.0
48, 0.0
54, 0.0
60, 0.0
66, 0.0
72, 0.0
78, 0.0
84, 0.0
90, 0.0
96, 0.0
102, 0.0
108, 0.0
114, 0.0
120, 0.0
126, 0.0
132.0, 0.000384157
138.0, 0.00416789
144.0, 0.0255066
150.0, 0.0357175
156.0, 0.0137648
162.0, 0.0443857
168.0, 0.11398
174.0, 0.190619
180.0, 0.157732
186.0, 0.105258
192.0, 0.0737485
198.0, 0.0657433
204.0, 0.0709021
210.0, 0.0727327
216.0, 0.0693412
222.0, 0.0544395
228.0, 0.0324494
234.0, 0.0194037
240.0, 0.0131218
246.0, 0.0111869
252.0, 0.0102373
258.0, 0.00418418
264.0, 0.0012953
270.0, 0.00157188
276.0, 0.00151257
282.0, 3.61786e-05
288.0, 0.00138758
294.0, 0.00316625
300.0, 0.00966521
306.0, 0.00948471
312.0, 0.0119694
318.0, 0.0106888
324.0, 0.0153618
330.0, 0.0342957
336.0, 0.0538049
342.0, 0.0643556
348.0, 0.0496574
354.0, 0.0559611
360.0, 0.0987684
366.0, 0.183356
372.0, 0.248046
378.0, 0.207392
384.0, 0.110547
390.0, 0.059764
396.0, 0.0434506
402.0, 0.0288424
408.0, 0.0168176
414.0, 0.0144101
420.0, 0.0125838
426.0, 0.00589645
432.0, 0.0021783
438.0, 0.00186482
444.0, 0.000326166
450.0, 9.76099e-05
456.0, 0.00110393
462.0, 0.00429297
468.0, 0.00737034
474.0, 0.00784489
480.0, 0.0110235
486.0, 0.0187849
492.0, 0.030147
498.0, 0.0467584
504.0, 0.0741906
510.0, 0.0974829
516.0, 0.105243
522.0, 0.082915
528.0, 0.0475771
534.0, 0.0287252
540.0, 0.0214871
546.0, 0.0186839
552.0, 0.0171288
558.0, 0.0138254
564.0, 0.00746353
570.0, 0.00384669
576.0, 0.000635204
582.0, 0.000540845
588.0, 0.000819592
594.0, 0.000524194
600.0, 0.00105561
606.0, 0.00187048
612.0, 0.00620089
618.0, 0.0136443
624.0, 0.0274156
630.0, 0.0462796
636.0, 0.0796759
642.0, 0.163425
648.0, 0.387896
654.0, 0.768064
660.0, 0.993072
666.0, 0.542079
672.0, 0.203482
678.0, 0.0957695
684.0, 0.0542308
690.0, 0.0309765
696.0, 0.0171552
702.0, 0.00941214
708.0, 0.00413812
714.0, 0.000613164
720.0, 0.00110146
726.0, 0.00153977
732.0, 0.0100183
738.0, 0.0235503
744.0, 0.0259037
750.0, 0.0250283
756.0, 0.0159743
762.0, 0.0108254
768.0, 0.0179636
774.0, 0.0215373
780.0, 0.0154794
786.0, 0.00553689
792.0, 0.00160892
798.0, 0.000487974
804.0, 0.000315453
810.0, 0.00144727
816.0, 0.00217634
822.0, 0.00172011
828.0, 0.00389664
834.0, 0.00367519
840.0, 0.00417754
846.0, 0.00187198
852.0, 0.00349498
858.0, 0.00169658
864.0, 0.00105617
870.0, 0.000119421
876.0, 0.000584378
882.0, 0.003405
888.0, 0.00782201
894.0, 0.0123097
900.0, 0.0192629
906.0, 0.0317518
912.0, 0.0348099
918.0, 0.0260236
924.0, 0.0123488
930.0, 0.00424338
936.0, 0.0013121
942.0, 0.00223987
948.0, 0.000802512
954.0, 0.00473819
960.0, 0.0189264
966.0, 0.0471535
972.0, 0.0649835
978.0, 0.0597805
984.0, 0.0540897
990.0, 0.0699195
996.0, 0.0873645
1002.0, 0.075129
1008.0, 0.0747414
1014.0, 0.138169
1020.0, 0.26261
1026.0, 0.325199
1032.0, 0.211403
1038.0, 0.0962732
1044.0, 0.0453022
1050.0, 0.0216499
1056.0, 0.0103817
1062.0, 0.00628284
1068.0, 0.00130595
1074.0, 0.00183796
1080.0, 0.00142112
1086.0, 0.00269528
1092.0, 0.0155393
1098.0, 0.0273556
1104.0, 0.0232481
1110.0, 0.0105093
1116.0, 0.00791345
1122.0, 0.00317398
1128.0, 0.00436331
1134.0, 0.00245404
1140.0, 0.00222332
1146.0, 0.000816326
1152.0, 0.00155016
1158.0, 0.00131164
1164.0, 0.00356945
1170.0, 0.00039329
1176.0, 0.00139864
1182.0, 0.00219048
1188.0, 0.00127666
1194.0, 0.0031318
1200.0, 0.00254357
1206.0, 0.0019599
1212.0, 0.00413814
1218.0, 0.000608757
1224.0, 0.00150549
1230.0, 0.00204638
1236.0, 0.00264348
1242.0, 0.00132022
1248.0, 0.00319231
1254.0, 0.00238616
1260.0, 0.00278333
1266.0, 0.00190526
1272.0, 0.00073349
1278.0, 0.00201746
1284.0, 0.00193946
1290.0, 0.00016368
1296.0, 0.00185392
1302.0, 0.00183764
1308.0, 0.00126074
1314.0, 0.00239654
1320, 0.0
1326, 0.0
1332, 0.0
1338, 0.0
1344, 0.0
1350, 0.0
1356, 0.0
1362, 0.0
1368, 0.0
1374, 0.0
1380, 0.0
1386, 0.0
1392, 0.0
1398, 0.0
1404, 0.0
1410, 0.0
1416, 0.0
1422, 0.0
1428, 0.0
1434, 0.0
1440, 0.0
1446, 0.0
1452, 0.0
1458, 0.0
1464, 0.0
1470, 0.0
1476, 0.0
1482, 0.0
1488, 0.0
1494, 0.0
1500, 0.0
1506, 0.0
1512, 0.0
1518, 0.0
1524, 0.0
1530, 0.0
1536, 0.0
1542, 0.0
1548, 0.0
1554, 0.0
1560, 0.0
1566, 0.0
1572, 0.0
1578, 0.0
1584, 0.0
1590, 0.0
1596, 0.0
1599, 0.0

File: Protoferroanthophyllite__R060053__Raman__785__0__unoriented__Raman_Data_Processed__16818.txt
30, 0.0
36, 0.0
42, 0.0
48, 0.0
54, 0.0
60, 0.0
66, 0.0
72, 0.0
78, 0.0
84, 0.0
90, 0.0
96, 0.0
102, 0.0
108, 0.0
114, 0.0
120, 0.0
126, 0.0
132, 0.0
138.0, 0.00410366
144.0, 0.0270779
150.0, 0.124008
156.0, 0.0615942
162.0, 0.135116
168.0, 0.303991
174.0, 0.507829
180.0, 0.443905
186.0, 0.295531
192.0, 0.210689
198.0, 0.189855
204.0, 0.17963
210.0, 0.174069
216.0, 0.17753
222.0, 0.168537
228.0, 0.112904
234.0, 0.0696382
240.0, 0.04569
246.0, 0.0373788
252.0, 0.0306117
258.0, 0.0164509
264.0, 0.00785226
270.0, 0.004083
276.0, 0.00482716
282.0, 0.000862311
288.0, 0.00335109
294.0, 0.0133237
300.0, 0.023126
306.0, 0.0386362
312.0, 0.0525809
318.0, 0.0361507
324.0, 0.0319706
330.0, 0.0520684
336.0, 0.0719383
342.0, 0.0891857
348.0, 0.0779547
354.0, 0.0780125
360.0, 0.131243
366.0, 0.216792
372.0, 0.31324
378.0, 0.288963
384.0, 0.169191
390.0, 0.0995298
396.0, 0.0788064
402.0, 0.0554061
408.0, 0.0347921
414.0, 0.0301551
420.0, 0.0119628
426.0, 0.00768894
432.0, 0.00874534
438.0, 0.000404258
444.0, 0.000970328
450.0, 0.00503698
456.0, 0.00738213
462.0, 0.0206363
468.0, 0.0385422
474.0, 0.0390319
480.0, 0.0470595
486.0, 0.0459798
492.0, 0.0518369
498.0, 0.0829329
504.0, 0.125714
510.0, 0.189691
516.0, 0.248372
522.0, 0.207804
528.0, 0.125852
534.0, 0.0682552
540.0, 0.04534
546.0, 0.0308519
552.0, 0.0192184
558.0, 0.0228934
564.0, 0.00947195
570.0, 0.00673504
576.0, 0.00186217
582.0, 0.00510146
588.0, 0.00276742
594.0, 0.00110291
600.0, 0.000960023
606.0, 0.00393854
612.0, 0.0124323
618.0, 0.0177368
624.0, 0.0245273
630.0, 0.0549054
636.0, 0.0906294
642.0, 0.165522
648.0, 0.363598
654.0, 0.712775
660.0, 0.996262
666.0, 0.570023
672.0, 0.209188
678.0, 0.104829
684.0, 0.0489094
690.0, 0.0371538
696.0, 0.0217887
702.0, 0.011014
708.0, 0.00367411
714.0, 0.00235778
720.0, 0.00179476
726.0, 0.00341289
732.0, 0.013424
738.0, 0.0300605
744.0, 0.0391428
750.0, 0.0349786
756.0, 0.0217973
762.0, 0.00954949
768.0, 0.0118044
774.0, 0.0136683
780.0, 0.000803009
786.0, 0.000434168
792.0, 0.00389614
798.0, 0.00332428
804.0, 0.0027765
810.0, 0.0039252
816.0, 0.0112916
822.0, 0.0086759
828.0, 0.00567103
834.0, 0.00257439
840.0, 0.00521822
846.0, 0.00617074
852.0, 0.00594667
858.0, 0.00777321
864.0, 0.00216719
870.0, 0.00191117
876.0, 0.00278253
882.0, 0.00169293
888.0, 0.013008
894.0, 0.0183319
900.0, 0.030004
906.0, 0.0410393
912.0, 0.0423762
918.0, 0.0316441
924.0, 0.0206932
930.0, 0.0116744
936.0, 0.00793687
942.0, 0.00185099
948.0, 0.00360864
954.0, 0.00752903
960.0, 0.0135969
966.0, 0.0352016
972.0, 0.045926
978.0, 0.0428643
984.0, 0.04158
990.0, 0.0527066
996.0, 0.0829882
1002.0, 0.0764346
1008.0, 0.0694701
1014.0, 0.110171
1020.0, 0.194688
1026.0, 0.261153
1032.0, 0.172005
1038.0, 0.0760909
1044.0, 0.031679
1050.0, 0.0216207
1056.0, 0.00416016
1062.0, 0.0128013
1068.0, 0.00135228
1074.0, 0.00386548
1080.0, 0.00229071
1086.0, 0.00458744
1092.0, 0.00630996
1098.0, 0.00900349
1104.0, 0.00555093
1110.0, 0.00103369
1116.0, 0.000273085
1122.0, 0.00213287
1128.0, 0.00840109
1134.0, 0.00790759
1140.0, 0.0043559
1146.0, 0.000724791
1152.0, 0.0100736
1158.0, 0.00691002
1164.0, 0.00539433
1170.0, 0.00628404
1176.0, 0.00886321
1182.0, 0.0072503
1188.0, 0.00226348
1194.0, 0.00948385
1200.0, 0.00288788
1206.0, 0.00752352
1212.0, 0.0072933
1218.0, 0.00396886
1224.0, 0.0121219
1230.0, 0.0082532
1236.0, 0.00717912
1242.0, 0.00226726
1248, 0.0
1254, 0.0
1260, 0.0
1266, 0.0
1272, 0.0
1278, 0.0
1284, 0.0
1290, 0.0
1296, 0.0
1302, 0.0
1308, 0.0
1314, 0.0
1320, 0.0
1326, 0.0
1332, 0.0
1338, 0.0
1344, 0.0
1350, 0.0
1356, 0.0
1362, 0.0
1368, 0.0
1374, 0.0
1380, 0.0
1386, 0.0
1392, 0.0
1398, 0.0
1404, 0.0
1410, 0.0
1416, 0.0
1422, 0.0
1428, 0.0
1434, 0.0
1440, 0.0
1446, 0.0
1452, 0.0
1458, 0.0
1464, 0.0
1470, 0.0
1476, 0.0
1482, 0.0
1488, 0.0
1494, 0.0
1500, 0.0
1506, 0.0
1512, 0.0
1518, 0.0
1524, 0.0
1530, 0.0
1536, 0.0
1542, 0.0
1548, 0.0
1554, 0.0
1560, 0.0
1566, 0.0
1572, 0.0
1578, 0.0
1584, 0.0
1590, 0.0
1596, 0.0
1599, 0.0