Folder: 1D_CNN_For_Mineral_Classification/raw data/Dataset_2/Pyroxferroite

File: Pyroxferroite__R141080__Raman__532__0__unoriented__Raman_Data_Processed__40377.txt
30, 0.0
36, 0.0
42, 0.0
48, 0.0
54, 0.0
60, 0.0
66, 0.0
72, 0.0
78, 0.0
84, 0.0
90, 0.0
96, 0.0
102.0, 0.00106659
108.0, 0.0463307
114.0, 0.123282
120.0, 0.203202
126.0, 0.180169
132.0, 0.192523
138.0, 0.19302
144.0, 0.146144
150.0, 0.121656
156.0, 0.108038
162.0, 0.0906539
168.0, 0.0802791
174.0, 0.07045
180.0, 0.0579699
186.0, 0.0420705
192.0, 0.029327
198.0, 0.028416
204.0, 0.0309933
210.0, 0.0391941
216.0, 0.038955
222.0, 0.0743696
228.0, 0.0405832
234.0, 0.00571987
240.0, 0.00199225
246.0, 0.000607727
252.0, 0.007915
258.0, 0.00821984
264.0, 0.00186185
270.0, 0.00781631
276.0, 0.00788073
282.0, 0.0130207
288.0, 0.050568
294.0, 0.0494208
300.0, 0.0473533
306.0, 0.0403508
312.0, 0.0317131
318.0, 0.0357302
324.0, 0.0517425
330.0, 0.079302
336.0, 0.121419
342.0, 0.146271
348.0, 0.152624
354.0, 0.145933
360.0, 0.13349
366.0, 0.10833
372.0, 0.0877908
378.0, 0.0772813
384.0, 0.0700133
390.0, 0.0602539
396.0, 0.0493248
402.0, 0.0382629
408.0, 0.0279208
414.0, 0.0139258
420.0, 0.00298109
426.0, 0.000943214
432.0, 0.00506618
438.0, 0.00270799
444.0, 0.00033815
450.0, 0.00640096
456.0, 0.000528272
462.0, 0.00223995
468.0, 0.00413647
474.0, 0.00771487
480.0, 0.00951155
486.0, 0.0171923
492.0, 0.024672
498.0, 0.0354051
504.0, 0.040627
510.0, 0.0604
516.0, 0.0870936
522.0, 0.105248
528.0, 0.116107
534.0, 0.13831
540.0, 0.191418
546.0, 0.231361
552.0, 0.235882
558.0, 0.213993
564.0, 0.171864
570.0, 0.124114
576.0, 0.08577
582.0, 0.0537954
588.0, 0.0260491
594.0, 0.00740764
600.0, 0.00379132
606.0, 0.00653832
612.0, 0.0051469
618.0, 0.00307004
624.0, 0.0246859
630.0, 0.0397833
636.0, 0.0837863
642.0, 0.158189
648.0, 0.297466
654.0, 0.513371
660.0, 0.758294
666.0, 0.962137
672.0, 0.926985
678.0, 0.572992
684.0, 0.309957
690.0, 0.18786
696.0, 0.148935
702.0, 0.129517
708.0, 0.101609
714.0, 0.0764845
720.0, 0.0575408
726.0, 0.0317065
732.0, 0.0135972
738.0, 0.00860948
744.0, 0.00251328
750.0, 0.0012016
756.0, 0.00154493
762.0, 0.00625734
768.0, 0.0115626
774.0, 0.0103876
780.0, 0.0092564
786.0, 0.00491565
792.0, 0.00208412
798.0, 0.00102632
804.0, 0.00132052
810.0, 0.0014604
816.0, 0.000223979
822.0, 0.00078142
828.0, 0.00106829
834.0, 0.00291329
840.0, 0.0117704
846.0, 0.0204879
852.0, 0.0243662
858.0, 0.0269098
864.0, 0.0238569
870.0, 0.0221879
876.0, 0.014295
882.0, 0.00827433
888.0, 0.00319125
894.0, 0.00908832
900.0, 0.0105792
906.0, 0.000610861
912.0, 0.0132271
918.0, 0.0308653
924.0, 0.053139
930.0, 0.0784226
936.0, 0.10112
942.0, 0.121503
948.0, 0.139308
954.0, 0.182079
960.0, 0.260102
966.0, 0.397649
972.0, 0.564964
978.0, 0.659881
984.0, 0.68462
990.0, 0.728264
996.0, 0.691813
1002.0, 0.556177
1008.0, 0.399326
1014.0, 0.269852
1020.0, 0.168137
1026.0, 0.0990423
1032.0, 0.0610584
1038.0, 0.0423439
1044.0, 0.0277433
1050.0, 0.0134159
1056.0, 0.00424573
1062.0, 0.00378875
1068.0, 0.00601688
1074.0, 0.00623521
1080.0, 0.000484106
1086.0, 0.0023921
1092.0, 0.00723404
1098.0, 0.0175823
1104.0, 0.0255948
1110.0, 0.028519
1116.0, 0.0276164
1122.0, 0.0236186
1128.0, 0.0164169
1134.0, 0.0087803
1140.0, 0.00854604
1146.0, 0.00479115
1152.0, 0.00498061
1158.0, 0.00469093
1164.0, 0.00632636
1170.0, 0.00583234
1176.0, 0.00779587
1182.0, 0.00824523
1188.0, 0.00805001
1194.0, 0.00617634
1200.0, 0.00694558
1206.0, 0.00566521
1212.0, 0.00435242
1218.0, 0.00358459
1224.0, 0.00369469
1230.0, 0.0036663
1236.0, 0.00226952
1242.0, 0.00110931
1248.0, 0.00180931
1254.0, 0.000841316
1260.0, 0.00286977
1266.0, 0.0017623
1272.0, 0.000844126
1278.0, 0.000958387
1284.0, 0.00125561
1290.0, 0.000349598
1296.0, 0.000279192
1302, 0.0
1308, 0.0
1314, 0.0
1320, 0.0
1326, 0.0
1332, 0.0
1338, 0.0
1344, 0.0
1350, 0.0
1356, 0.0
1362, 0.0
1368, 0.0
1374, 0.0
1380, 0.0
1386, 0.0
1392, 0.0
1398, 0.0
1404, 0.0
1410, 0.0
1416, 0.0
1422, 0.0
1428, 0.0
1434, 0.0
1440, 0.0
1446, 0.0
1452, 0.0
1458, 0.0
1464, 0.0
1470, 0.0
1476, 0.0
1482, 0.0
1488, 0.0
1494, 0.0
1500, 0.0
1506, 0.0
1512, 0.0
1518, 0.0
1524, 0.0
1530, 0.0
1536, 0.0
1542, 0.0
1548, 0.0
1554, 0.0
1560, 0.0
1566, 0.0
1572, 0.0
1578, 0.0
1584, 0.0
1590, 0.0
1596, 0.0
1599, 0.0

File: Pyroxferroite__R141080__Raman__780__0__unoriented__Raman_Data_Processed__40379.txt
30, 0.0
36, 0.0
42, 0.0
48, 0.0
54, 0.0
60, 0.0
66, 0.0
72, 0.0
78, 0.0
84, 0.0
90, 0.0
96, 0.0
102.0, 0.00475147
108.0, 0.00707757
114.0, 0.0679549
120.0, 0.0995866
126.0, 0.0867352
132.0, 0.0591298
138.0, 0.0428131
144.0, 0.00871458
150.0, 0.0078333
156.0, 0.0045541
162.0, 0.0207883
168.0, 0.0344951
174.0, 0.0380068
180.0, 0.048217
186.0, 0.0285845
192.0, 0.0268533
198.0, 0.0310921
204.0, 0.0508593
210.0, 0.0604638
216.0, 0.124926
222.0, 0.425456
228.0, 0.106885
234.0, 0.0364554
240.0, 0.0300344
246.0, 0.0142878
252.0, 0.00478945
258.0, 0.00312052
264.0, 0.018679
270.0, 0.0345667
276.0, 0.0771359
282.0, 0.200642
288.0, 0.433405
294.0, 0.289909
300.0, 0.140018
306.0, 0.056983
312.0, 0.027577
318.0, 0.0107714
324.0, 0.01972
330.0, 0.0486459
336.0, 0.0638607
342.0, 0.0958652
348.0, 0.113159
354.0, 0.111084
360.0, 0.113931
366.0, 0.104012
372.0, 0.0869898
378.0, 0.0751763
384.0, 0.079688
390.0, 0.0783723
396.0, 0.105221
402.0, 0.157184
408.0, 0.14961
414.0, 0.0855865
420.0, 0.031049
426.0, 0.00664097
432.0, 0.00295914
438.0, 0.00548469
444.0, 0.00500854
450.0, 0.00118833
456.0, 0.00522408
462.0, 0.00300171
468.0, 0.00712019
474.0, 0.0155521
480.0, 0.0239787
486.0, 0.068171
492.0, 0.0525172
498.0, 0.0525087
504.0, 0.0610522
510.0, 0.0842167
516.0, 0.0834733
522.0, 0.0710564
528.0, 0.0671994
534.0, 0.0901692
540.0, 0.121324
546.0, 0.140951
552.0, 0.149125
558.0, 0.125378
564.0, 0.0854847
570.0, 0.0550624
576.0, 0.0287019
582.0, 0.0159304
588.0, 0.00490091
594.0, 0.00748514
600.0, 0.0051947
606.0, 0.0166236
612.0, 0.00802522
618.0, 0.000928829
624.0, 0.0144293
630.0, 0.0446277
636.0, 0.0994556
642.0, 0.190288
648.0, 0.351628
654.0, 0.564006
660.0, 0.794932
666.0, 0.988459
672.0, 0.890706
678.0, 0.578901
684.0, 0.336895
690.0, 0.207897
696.0, 0.157838
702.0, 0.131148
708.0, 0.0880809
714.0, 0.0639462
720.0, 0.046813
726.0, 0.0307348
732.0, 0.0153303
738.0, 0.0107274
744.0, 0.00630318
750.0, 0.00473739
756.0, 0.00365922
762.0, 0.00692848
768.0, 0.00277721
774.0, 0.00400859
780.0, 0.00138577
786.0, 0.0186014
792.0, 0.00607635
798.0, 0.00817259
804.0, 0.0164762
810.0, 0.00659118
816.0, 0.014406
822.0, 0.00668686
828.0, 0.00997152
834.0, 0.00484649
840.0, 0.00909018
846.0, 0.0118519
852.0, 0.0111876
858.0, 0.0101364
864.0, 0.00577897
870.0, 0.00287478
876.0, 0.00521392
882.0, 0.00228978
888.0, 0.0048018
894.0, 0.00786062
900.0, 0.00232053
906.0, 0.00147521
912.0, 0.00542641
918.0, 0.0147368
924.0, 0.0232255
930.0, 0.0415191
936.0, 0.0586494
942.0, 0.0779121
948.0, 0.104971
954.0, 0.140392
960.0, 0.2173
966.0, 0.334468
972.0, 0.426892
978.0, 0.473806
984.0, 0.484844
990.0, 0.472406
996.0, 0.423959
1002.0, 0.331925
1008.0, 0.250687
1014.0, 0.180721
1020.0, 0.107695
1026.0, 0.0553244
1032.0, 0.0312789
1038.0, 0.0177627
1044.0, 0.013897
1050.0, 0.00146459
1056.0, 0.00395873
1062.0, 0.000441226
1068.0, 0.00790414
1074.0, 0.00241452
1080.0, 0.0034126
1086.0, 0.00720863
1092.0, 0.00330575
1098.0, 0.00777852
1104.0, 0.0111649
1110.0, 0.00745077
1116.0, 0.0113253
1122.0, 0.0107152
1128.0, 0.00516716
1134.0, 0.00550628
1140.0, 0.00973859
1146.0, 0.0041317
1152.0, 0.010912
1158.0, 0.00624755
1164.0, 0.00440044
1170.0, 0.012802
1176.0, 0.0135069
1182.0, 0.0113281
1188.0, 0.014081
1194.0, 0.0151186
1200.0, 0.00979516
1206.0, 0.00857929
1212.0, 0.00734313
1218.0, 0.00495231
1224.0, 0.00555176
1230.0, 0.00208845
1236.0, 0.00465297
1242.0, 0.00612396
1248.0, 0.00564846
1254.0, 0.00487938
1260.0, 0.00804688
1266.0, 0.00645054
1272.0, 0.00165737
1278.0, 0.00267012
1284, 0.0
1290, 0.0
1296, 0.0
1302, 0.0
1308, 0.0
1314, 0.0
1320, 0.0
1326, 0.0
1332, 0.0
1338, 0.0
1344, 0.0
1350, 0.0
1356, 0.0
1362, 0.0
1368, 0.0
1374, 0.0
1380, 0.0
1386, 0.0
1392, 0.0
1398, 0.0
1404, 0.0
1410, 0.0
1416, 0.0
1422, 0.0
1428, 0.0
1434, 0.0
1440, 0.0
1446, 0.0
1452, 0.0
1458, 0.0
1464, 0.0
1470, 0.0
1476, 0.0
1482, 0.0
1488, 0.0
1494, 0.0
1500, 0.0
1506, 0.0
1512, 0.0
1518, 0.0
1524, 0.0
1530, 0.0
1536, 0.0
1542, 0.0
1548, 0.0
1554, 0.0
1560, 0.0
1566, 0.0
1572, 0.0
1578, 0.0
1584, 0.0
1590, 0.0
1596, 0.0
1599, 0.0