Folder: 1D_CNN_For_Mineral_Classification/raw data/Dataset_2/Silicon

File: Silicon__R040145__Raman__514__0__unoriented__Raman_Data_Processed__10159.txt
30, 0.0
36, 0.0
42, 0.0
48, 0.0
54, 0.0
60, 0.0
66, 0.0
72, 0.0
78, 0.0
84, 0.0
90, 0.0
96, 0.0
102, 0.0
108, 0.0
114, 0.0
120, 0.0
126, 0.0
132.0, 0.000943591
138.0, 0.00563259
144.0, 0.0026071
150.0, 0.00428006
156.0, 0.00351006
162.0, 0.00328628
168.0, 0.00200186
174.0, 0.00383927
180.0, 0.00503033
186.0, 0.00506204
192.0, 0.00716519
198.0, 0.0100711
204.0, 0.0103439
210.0, 0.00562393
216.0, 0.000731018
222.0, 1.83487e-05
228.0, 0.00153949
234.0, 0.000178392
240.0, 0.000587175
246.0, 0.000631942
252.0, 0.0017633
258.0, 0.000577083
264.0, 0.000647709
270.0, 0.00148938
276.0, 0.00114685
282.0, 0.000556472
288.0, 0.00219109
294.0, 0.0029338
300.0, 0.00844106
306.0, 0.0063378
312.0, 0.0040175
318.0, 0.00503417
324.0, 0.00460057
330.0, 0.0042922
336.0, 0.0047532
342.0, 0.00534454
348.0, 0.00462417
354.0, 0.00509246
360.0, 0.00496009
366.0, 0.00658822
372.0, 0.00639394
378.0, 0.00481176
384.0, 0.00409294
390.0, 0.00610319
396.0, 0.003608
402.0, 0.00367939
408.0, 0.0032884
414.0, 0.00327222
420.0, 0.00318694
426.0, 0.00447706
432.0, 0.00412422
438.0, 0.00496647
444.0, 0.00401342
450.0, 0.00283944
456.0, 0.0028865
462.0, 0.00461248
468.0, 0.00424227
474.0, 0.00663221
480.0, 0.00609778
486.0, 0.00906666
492.0, 0.010139
498.0, 0.0144236
504.0, 0.0223557
510.0, 0.0565297
516.0, 0.432021
522.0, 0.537027
528.0, 0.0700294
534.0, 0.0294284
540.0, 0.0161818
546.0, 0.0144318
552.0, 0.0122954
558.0, 0.0107946
564.0, 0.00889964
570.0, 0.00708229
576.0, 0.00803369
582.0, 0.00794374
588.0, 0.00437021
594.0, 0.00189752
600.0, 0.00179205
606.0, 0.00233674
612.0, 0.00358826
618.0, 0.00402583
624.0, 0.00263885
630.0, 0.0021709
636.0, 0.00332412
642.0, 0.00189194
648.0, 0.00268005
654.0, 0.00270807
660.0, 0.00223949
666.0, 0.00189
672.0, 0.00204585
678.0, 0.00155298
684.0, 0.00144866
690.0, 0.000792766
696.0, 0.000211321
702.0, 0.000628388
708.0, 0.000584862
714.0, 0.000523013
720.0, 0.00111015
726.0, 0.000914923
732.0, 0.000973716
738.0, 0.000545047
744.0, 0.000966122
750.0, 0.00137928
756.0, 0.00169069
762.0, 0.000911185
768.0, 0.00113237
774.0, 0.000317588
780.0, 0.00141485
786.0, 0.00109189
792.0, 0.00125628
798.0, 0.00231078
804.0, 0.00193134
810.0, 0.00235875
816.0, 0.00228221
822.0, 0.00308146
828.0, 0.00154669
834.0, 0.00292774
840.0, 0.00251394
846.0, 0.00230302
852.0, 0.00203046
858.0, 0.00108199
864.0, 0.00333818
870.0, 0.00202867
876.0, 0.00190364
882.0, 0.00269221
888.0, 0.0025723
894.0, 0.00233081
900.0, 0.0025064
906.0, 0.00307596
912.0, 0.00270526
918.0, 0.00312749
924.0, 0.00532162
930.0, 0.0111764
936.0, 0.0183082
942.0, 0.025578
948.0, 0.0240569
954.0, 0.0235478
960.0, 0.0253834
966.0, 0.0236125
972.0, 0.0266488
978.0, 0.0271893
984.0, 0.0265701
990.0, 0.0211227
996.0, 0.014565
1002.0, 0.0104029
1008.0, 0.00965104
1014.0, 0.00767272
1020.0, 0.0048024
1026.0, 0.00411144
1032.0, 0.00454748
1038.0, 0.00420212
1044.0, 0.00307284
1050.0, 0.00205347
1056.0, 0.00167107
1062.0, 0.00134817
1068.0, 0.0028627
1074.0, 0.00262215
1080.0, 0.00249685
1086.0, 0.0016409
1092.0, 0.0010482
1098.0, 0.000157318
1104.0, 0.00217984
1110.0, 0.0011449
1116.0, 0.000845499
1122.0, 0.00478224
1128.0, 0.00144351
1134.0, 0.000163918
1140.0, 0.00104007
1146.0, 0.0005892
1152.0, 0.00193729
1158.0, 0.000786045
1164.0, 0.000422971
1170.0, 0.000281682
1176.0, 0.00162357
1182.0, 0.00195169
1188.0, 0.000449577
1194.0, 0.00107123
1200.0, 0.00152529
1206.0, 0.00146653
1212.0, 0.00202623
1218.0, 0.00101437
1224.0, 0.00238141
1230.0, 0.00060278
1236.0, 0.00232844
1242.0, 0.000297717
1248.0, 0.00177156
1254.0, 9.60373e-06
1260.0, 0.00265624
1266.0, 0.00024572
1272.0, 0.000902129
1278.0, 0.000284882
1284.0, 0.000458533
1290.0, 0.00154137
1296.0, 0.00106103
1302.0, 0.00200754
1308.0, 0.00177413
1314.0, 0.00163454
1320.0, 0.000684922
1326.0, 0.00137559
1332.0, 0.00342638
1338.0, 0.0023947
1344.0, 0.00417261
1350.0, 0.00320909
1356.0, 0.00301737
1362.0, 0.0033355
1368.0, 0.0040685
1374.0, 0.00296908
1380.0, 0.00330222
1386.0, 0.00345758
1392.0, 0.00205087
1398.0, 0.00314874
1404.0, 0.00287927
1410.0, 0.00339252
1416.0, 0.0034296
1422.0, 0.00288318
1428.0, 0.00296426
1434.0, 0.002384
1440.0, 0.00406041
1446.0, 0.00333549
1452.0, 0.00333046
1458.0, 0.00319347
1464.0, 0.00381214
1470.0, 0.00283881
1476.0, 0.00229745
1482.0, 0.00268457
1488.0, 0.00177151
1494.0, 0.000269372
1500.0, 0.000869983
1506.0, 0.000601723
1512.0, 0.00202844
1518.0, 0.00134709
1524, 0.0
1530, 0.0
1536, 0.0
1542, 0.0
1548, 0.0
1554, 0.0
1560, 0.0
1566, 0.0
1572, 0.0
1578, 0.0
1584, 0.0
1590, 0.0
1596, 0.0
1599, 0.0

File: Silicon__R040145__Raman__532__0__unoriented__Raman_Data_Processed__27508.txt
30, 0.0
36, 0.0
42, 0.0
48, 0.0
54, 0.0
60, 0.0
66, 0.0
72, 0.0
78, 0.0
84, 0.0
90, 0.0
96, 0.0
102, 0.0
108, 0.0
114, 0.0
120, 0.0
126, 0.0
132, 0.0
138, 0.0
144, 0.0
150, 0.0
156, 0.0
162.0, 9.55804e-05
168.0, 0.000318888
174.0, 0.000947991
180.0, 0.0006058
186.0, 0.00133154
192.0, 0.000318265
198.0, 0.000585717
204.0, 0.000326259
210.0, 6.94963e-05
216.0, 0.000548548
222.0, 0.00123042
228.0, 0.00252529
234.0, 0.00264313
240.0, 0.00211049
246.0, 0.00251884
252.0, 0.00281022
258.0, 0.00267742
264.0, 0.00292355
270.0, 0.00283711
276.0, 0.00335102
282.0, 0.00455295
288.0, 0.00574482
294.0, 0.00754362
300.0, 0.00910805
306.0, 0.00814541
312.0, 0.00411268
318.0, 0.00380745
324.0, 0.00247927
330.0, 0.00207627
336.0, 0.0012249
342.0, 0.000643937
348.0, 0.000715039
354.0, 0.000318469
360.0, 0.000138291
366.0, 0.000149282
372.0, 0.000162428
378.0, 4.14205e-05
384.0, 0.000570752
390.0, 0.000229419
396.0, 7.83095e-05
402.0, 0.00111024
408.0, 0.00179667
414.0, 0.00153714
420.0, 0.0020664
426.0, 0.0023957
432.0, 0.00293178
438.0, 0.00244306
444.0, 0.000727464
450.0, 2.15967e-05
456.0, 0.000759185
462.0, 0.000110965
468.0, 0.000362944
474.0, 0.00159533
480.0, 0.00316031
486.0, 0.00567995
492.0, 0.00967204
498.0, 0.0226398
504.0, 0.103569
510.0, 0.259131
516.0, 0.614259
522.0, 0.890709
528.0, 0.136613
534.0, 0.0482847
540.0, 0.0259388
546.0, 0.0160926
552.0, 0.00992519
558.0, 0.00578022
564.0, 0.00346207
570.0, 0.00211701
576.0, 0.000287452
582.0, 6.81543e-05
588.0, 0.000371553
594.0, 0.000452267
600.0, 8.06534e-05
606.0, 0.000720636
612.0, 0.00158043
618.0, 0.00275678
624.0, 0.00158688
630.0, 0.000879643
636.0, 0.00078125
642.0, 0.000672984
648.0, 0.000886695
654.0, 0.000792168
660.0, 0.00150194
666.0, 0.00162151
672.0, 0.00153267
678.0, 0.00121771
684.0, 0.000814591
690.0, 0.000695566
696.0, 0.000312621
702.0, 0.000222218
708.0, 0.000127302
714.0, 8.46974e-05
720.0, 0.000257454
726.0, 0.000235447
732.0, 0.000426735
738.0, 0.000350589
744.0, 0.000147139
750.0, 1.32206e-05
756.0, 0.0002591
762.0, 0.000386607
768.0, 0.0003689
774.0, 0.00048326
780.0, 0.000553238
786.0, 0.000444435
792.0, 0.000546546
798.0, 0.000725602
804.0, 0.0011307
810.0, 0.00139645
816.0, 0.00131988
822.0, 0.00120982
828.0, 0.00108586
834.0, 0.000767815
840.0, 0.000461913
846.0, 0.000515874
852.0, 0.000850442
858.0, 0.00035409
864.0, 0.000299715
870.0, 7.66068e-05
876.0, 0.000381285
882.0, 0.000202536
888.0, 0.000100598
894.0, 0.0002962
900.0, 0.000133272
906.0, 2.63366e-05
912.0, 0.000288757
918.0, 0.000744118
924.0, 0.00353662
930.0, 0.0101111
936.0, 0.0193969
942.0, 0.0271668
948.0, 0.0260632
954.0, 0.0254626
960.0, 0.0265693
966.0, 0.0268031
972.0, 0.0277287
978.0, 0.0275052
984.0, 0.0247995
990.0, 0.0172401
996.0, 0.0102709
1002.0, 0.00681085
1008.0, 0.00450219
1014.0, 0.00399956
1020.0, 0.00267881
1026.0, 0.00208496
1032.0, 0.00154498
1038.0, 0.000495431
1044.0, 0.000203159
1050.0, 0.000207852
1056.0, 0.000320739
1062.0, 0.000172384
1068.0, 0.000223111
1074.0, 0.000293109
1080.0, 0.000148752
1086.0, 0.000669458
1092.0, 0.000685361
1098.0, 0.000352135
1104.0, 0.000691936
1110.0, 0.000483911
1116.0, 0.000396781
1122.0, 0.00049627
1128.0, 0.000468505
1134.0, 0.000388604
1140.0, 0.000234635
1146.0, 0.000377264
1152.0, 0.00011158
1158.0, 0.000187689
1164.0, 0.000370875
1170.0, 0.000611248
1176.0, 0.000197137
1182.0, 0.000207395
1188.0, 0.000458744
1194.0, 0.000212125
1200.0, 1.05568e-05
1206.0, 3.90866e-06
1212.0, 0.000195193
1218.0, 1.80137e-05
1224.0, 0.000482946
1230.0, 0.000233597
1236.0, 0.000204509
1242.0, 5.99203e-05
1248.0, 5.90111e-05
1254.0, 0.000434131
1260.0, 0.000464267
1266.0, 5.14662e-05
1272.0, 0.000345148
1278.0, 0.000269065
1284.0, 0.000385415
1290.0, 0.000213498
1296.0, 0.000201888
1302, 0.0
1308, 0.0
1314, 0.0
1320, 0.0
1326, 0.0
1332, 0.0
1338, 0.0
1344, 0.0
1350, 0.0
1356, 0.0
1362, 0.0
1368, 0.0
1374, 0.0
1380, 0.0
1386, 0.0
1392, 0.0
1398, 0.0
1404, 0.0
1410, 0.0
1416, 0.0
1422, 0.0
1428, 0.0
1434, 0.0
1440, 0.0
1446, 0.0
1452, 0.0
1458, 0.0
1464, 0.0
1470, 0.0
1476, 0.0
1482, 0.0
1488, 0.0
1494, 0.0
1500, 0.0
1506, 0.0
1512, 0.0
1518, 0.0
1524, 0.0
1530, 0.0
1536, 0.0
1542, 0.0
1548, 0.0
1554, 0.0
1560, 0.0
1566, 0.0
1572, 0.0
1578, 0.0
1584, 0.0
1590, 0.0
1596, 0.0
1599, 0.0

File: Silicon__R040145__Raman__780__0__unoriented__Raman_Data_Processed__27510.txt
30, 0.0
36, 0.0
42, 0.0
48, 0.0
54, 0.0
60, 0.0
66, 0.0
72, 0.0
78, 0.0
84, 0.0
90, 0.0
96, 0.0
102, 0.0
108, 0.0
114, 0.0
120, 0.0
126, 0.0
132, 0.0
138, 0.0
144, 0.0
150, 0.0
156, 0.0
162.0, 4.57877e-06
168.0, 0.00190352
174.0, 0.000640837
180.0, 0.0034296
186.0, 0.00221886
192.0, 0.000823118
198.0, 0.00204146
204.0, 3.40925e-05
210.0, 0.000879825
216.0, 0.00324846
222.0, 0.00532663
228.0, 0.00543737
234.0, 0.00607806
240.0, 0.00542042
246.0, 0.00686291
252.0, 0.00546496
258.0, 0.00522257
264.0, 0.00927997
270.0, 0.0133113
276.0, 0.0182466
282.0, 0.0352749
288.0, 0.0497478
294.0, 0.0600861
300.0, 0.0598154
306.0, 0.0373225
312.0, 0.0216148
318.0, 0.0150343
324.0, 0.0101105
330.0, 0.00569389
336.0, 0.00303469
342.0, 0.00056699
348.0, 0.00148321
354.0, 0.000800548
360.0, 0.000287496
366.0, 0.000351888
372.0, 0.000211071
378.0, 0.00100471
384.0, 5.32405e-05
390.0, 0.00110333
396.0, 0.00248946
402.0, 0.00549425
408.0, 0.00850624
414.0, 0.00869044
420.0, 0.0105611
426.0, 0.0103686
432.0, 0.0102348
438.0, 0.00693377
444.0, 0.00320405
450.0, 0.00118693
456.0, 0.000540383
462.0, 0.000271883
468.0, 0.000725699
474.0, 0.00157474
480.0, 0.00150196
486.0, 0.00804549
492.0, 0.0279027
498.0, 0.106716
504.0, 0.533292
510.0, 0.745358
516.0, 0.99254
522.0, 0.495127
528.0, 0.131067
534.0, 0.0677737
540.0, 0.0428813
546.0, 0.0305336
552.0, 0.0216317
558.0, 0.0126842
564.0, 0.00648514
570.0, 0.00490211
576.0, 0.00119925
582.0, 0.000867681
588.0, 0.000481754
594.0, 0.000120982
600.0, 0.000507554
606.0, 0.00106832
612.0, 0.0022488
618.0, 0.0021859
624.0, 0.00133802
630.0, 0.00118568
636.0, 0.000328808
642.0, 0.00134007
648.0, 0.00108934
654.0, 0.00239483
660.0, 0.00399416
666.0, 0.00355778
672.0, 0.0033887
678.0, 0.00408194
684.0, 0.00153004
690.0, 0.00034024
696.0, 0.000940745
702.0, 0.000270465
708.0, 0.00163674
714.0, 0.000428249
720.0, 0.000990951
726.0, 0.000490542
732.0, 0.00146223
738.0, 0.00184883
744.0, 0.00175196
750.0, 0.00203062
756.0, 0.0019141
762.0, 0.00108982
768.0, 0.000554835
774.0, 0.000233139
780.0, 0.000804802
786.0, 0.000141325
792.0, 0.00127871
798.0, 0.00149669
804.0, 0.00261809
810.0, 0.00110155
816.0, 0.00166802
822.0, 0.00223828
828.0, 0.00150451
834.0, 0.000210519
840.0, 0.00193115
846.0, 0.00162825
852.0, 7.74185e-05
858.0, 0.00229936
864.0, 0.000663163
870.0, 0.00187402
876.0, 0.000310646
882.0, 0.000694257
888.0, 0.00131278
894.0, 0.000710135
900.0, 0.00064605
906.0, 0.000389225
912.0, 0.0028559
918.0, 0.0108944
924.0, 0.0266199
930.0, 0.0460031
936.0, 0.0474632
942.0, 0.0430866
948.0, 0.0391134
954.0, 0.0364332
960.0, 0.0326519
966.0, 0.0314854
972.0, 0.0273367
978.0, 0.0245525
984.0, 0.0182749
990.0, 0.00961267
996.0, 0.00497662
1002.0, 0.00361044
1008.0, 0.00314654
1014.0, 0.00215913
1020.0, 0.000794543
1026.0, 0.000842674
1032.0, 0.000646143
1038.0, 0.000274033
1044.0, 0.000333422
1050.0, 0.00104976
1056.0, 0.00136976
1062.0, 0.00107097
1068.0, 0.000708345
1074.0, 0.000627416
1080.0, 0.00146508
1086.0, 0.00203092
1092.0, 0.00195159
1098.0, 0.000930283
1104.0, 0.00125504
1110.0, 0.00176441
1116.0, 0.00153668
1122.0, 0.00274713
1128.0, 0.00184905
1134.0, 0.000231088
1140.0, 0.00169028
1146.0, 0.000642255
1152.0, 0.000394849
1158.0, 3.38174e-05
1164.0, 0.00252372
1170.0, 0.000631286
1176.0, 0.000738535
1182.0, 0.000877207
1188.0, 0.00128764
1194.0, 0.000512077
1200.0, 0.00144472
1206.0, 0.00209803
1212.0, 0.0016693
1218.0, 0.000220075
1224.0, 0.000719075
1230.0, 0.000149517
1236.0, 0.000879218
1242.0, 0.00177461
1248.0, 0.0015645
1254.0, 0.00165502
1260.0, 0.00246489
1266.0, 0.000927096
1272.0, 0.00114283
1278, 0.0
1284, 0.0
1290, 0.0
1296, 0.0
1302, 0.0
1308, 0.0
1314, 0.0
1320, 0.0
1326, 0.0
1332, 0.0
1338, 0.0
1344, 0.0
1350, 0.0
1356, 0.0
1362, 0.0
1368, 0.0
1374, 0.0
1380, 0.0
1386, 0.0
1392, 0.0
1398, 0.0
1404, 0.0
1410, 0.0
1416, 0.0
1422, 0.0
1428, 0.0
1434, 0.0
1440, 0.0
1446, 0.0
1452, 0.0
1458, 0.0
1464, 0.0
1470, 0.0
1476, 0.0
1482, 0.0
1488, 0.0
1494, 0.0
1500, 0.0
1506, 0.0
1512, 0.0
1518, 0.0
1524, 0.0
1530, 0.0
1536, 0.0
1542, 0.0
1548, 0.0
1554, 0.0
1560, 0.0
1566, 0.0
1572, 0.0
1578, 0.0
1584, 0.0
1590, 0.0
1596, 0.0
1599, 0.0

File: Silicon__R050145-3__Raman__514__0__ccw__Raman_Data_Processed__5980.txt
30, 0.0
36, 0.0
42, 0.0
48, 0.0
54, 0.0
60, 0.0
66, 0.0
72, 0.0
78, 0.0
84, 0.0
90, 0.0
96, 0.0
102, 0.0
108, 0.0
114, 0.0
120.0, 0.0303243
126.0, 0.0145444
132.0, 0.032626
138.0, 0.0534068
144.0, 0.0728261
150.0, 0.0454509
156.0, 0.0377526
162.0, 0.0202015
168.0, 0.0122651
174.0, 0.0193416
180.0, 0.0182435
186.0, 0.0219386
192.0, 0.0163555
198.0, 0.019565
204.0, 0.0136013
210.0, 0.0103741
216.0, 0.00346584
222.0, 0.00187296
228.0, 0.00140642
234.0, 0.00490278
240.0, 0.00217575
246.0, 0.00231403
252.0, 0.00501012
258.0, 9.77525e-05
264.0, 0.00338878
270.0, 0.00257612
276.0, 0.00908711
282.0, 0.016639
288.0, 0.0334435
294.0, 0.0520106
300.0, 0.0708681
306.0, 0.0708938
312.0, 0.0668376
318.0, 0.0602006
324.0, 0.0557678
330.0, 0.0553307
336.0, 0.0528682
342.0, 0.0476527
348.0, 0.0402988
354.0, 0.0465158
360.0, 0.0453729
366.0, 0.0435463
372.0, 0.0464042
378.0, 0.0409752
384.0, 0.0372513
390.0, 0.03126
396.0, 0.0365284
402.0, 0.0279567
408.0, 0.0366333
414.0, 0.0316849
420.0, 0.0380933
426.0, 0.0372976
432.0, 0.0473824
438.0, 0.0715979
444.0, 0.0380376
450.0, 0.0389812
456.0, 0.0359491
462.0, 0.0371431
468.0, 0.0369775
474.0, 0.0417834
480.0, 0.0426134
486.0, 0.0426109
492.0, 0.0516986
498.0, 0.052643
504.0, 0.0610514
510.0, 0.0954514
516.0, 0.392436
522.0, 0.942055
528.0, 0.289332
534.0, 0.0823517
540.0, 0.0411047
546.0, 0.0303295
552.0, 0.023465
558.0, 0.0185144
564.0, 0.0186653
570.0, 0.0170119
576.0, 0.013965
582.0, 0.0105693
588.0, 0.00628856
594.0, 0.00578102
600.0, 0.00458701
606.0, 0.00544491
612.0, 0.0104772
618.0, 0.0141978
624.0, 0.0140089
630.0, 0.00985536
636.0, 0.00665342
642.0, 0.0084923
648.0, 0.010645
654.0, 0.008227
660.0, 0.00859725
666.0, 0.01093
672.0, 0.00728606
678.0, 0.00753997
684.0, 0.00383239
690.0, 0.00306426
696.0, 0.00172902
702.0, 0.00392676
708.0, 0.00137436
714.0, 0.00328028
720.0, 0.00406846
726.0, 0.00365326
732.0, 0.00499051
738.0, 0.00178961
744.0, 0.00143855
750.0, 0.000982593
756.0, 0.00162106
762.0, 0.00277418
768.0, 0.0032432
774.0, 0.00224507
780.0, 0.00481784
786.0, 0.00395321
792.0, 0.00152905
798.0, 0.00637409
804.0, 0.00787752
810.0, 0.00931457
816.0, 0.00725148
822.0, 0.00699087
828.0, 0.0131464
834.0, 0.00877974
840.0, 0.00371659
846.0, 0.00286577
852.0, 0.00365516
858.0, 0.0026823
864.0, 0.00385735
870.0, 0.00516142
876.0, 0.00636479
882.0, 0.00649759
888.0, 0.00337845
894.0, 0.0049579
900.0, 0.00840323
906.0, 0.00885395
912.0, 0.00840191
918.0, 0.0132627
924.0, 0.0166513
930.0, 0.0314666
936.0, 0.0661394
942.0, 0.0986301
948.0, 0.11037
954.0, 0.114405
960.0, 0.118376
966.0, 0.117129
972.0, 0.11939
978.0, 0.124663
984.0, 0.124132
990.0, 0.105888
996.0, 0.0706744
1002.0, 0.0497864
1008.0, 0.0449954
1014.0, 0.0357745
1020.0, 0.0290307
1026.0, 0.0255988
1032.0, 0.0214412
1038.0, 0.0228332
1044.0, 0.0108047
1050.0, 0.0145304
1056.0, 0.0095301
1062.0, 0.0109303
1068.0, 0.00729893
1074.0, 0.0113847
1080.0, 0.00964339
1086.0, 0.00689129
1092.0, 0.00989995
1098.0, 0.00810702
1104.0, 0.00404701
1110.0, 0.00770737
1116.0, 0.00867535
1122.0, 0.0108571
1128.0, 0.0098222
1134.0, 0.0061897
1140.0, 0.00270059
1146.0, 0.00245077
1152.0, 0.00300135
1158.0, 0.000974037
1164.0, 0.00400443
1170.0, 0.0011083
1176.0, 0.00200627
1182.0, 0.00438596
1188.0, 0.00521823
1194.0, 0.0039009
1200.0, 0.00434012
1206.0, 0.00345922
1212.0, 0.0089839
1218.0, 0.00429539
1224.0, 0.00496445
1230.0, 0.0142615
1236.0, 0.00687257
1242.0, 0.00782623
1248.0, 0.0041686
1254.0, 0.00726015
1260.0, 0.00989794
1266.0, 0.00458709
1272.0, 0.00518685
1278.0, 0.00389499
1284.0, 0.00530697
1290.0, 0.00791256
1296.0, 0.0105918
1302.0, 0.00633556
1308.0, 0.00152857
1314.0, 0.0034434
1320.0, 0.00270075
1326.0, 0.00237858
1332.0, 0.00144493
1338.0, 0.00727718
1344.0, 0.00812807
1350.0, 0.00783322
1356.0, 0.00213767
1362.0, 0.00726184
1368.0, 0.00828255
1374.0, 0.00720959
1380.0, 0.00846123
1386.0, 0.00874915
1392.0, 0.00895602
1398.0, 0.00569587
1404.0, 0.00717034
1410.0, 0.00998068
1416.0, 0.00746997
1422.0, 0.00889887
1428.0, 0.00619652
1434.0, 0.00439546
1440.0, 0.00638486
1446.0, 0.00397804
1452.0, 0.00447327
1458.0, 0.00891571
1464.0, 0.00486021
1470.0, 0.00498306
1476.0, 0.00719042
1482.0, 0.00352208
1488.0, 0.00315361
1494.0, 0.00326519
1500.0, 0.00589297
1506.0, 0.0100033
1512.0, 0.00757235
1518.0, 0.000746574
1524, 0.0
1530, 0.0
1536, 0.0
1542, 0.0
1548, 0.0
1554, 0.0
1560, 0.0
1566, 0.0
1572, 0.0
1578, 0.0
1584, 0.0
1590, 0.0
1596, 0.0
1599, 0.0

File: Silicon__R050145-3__Raman__514__45__ccw__Raman_Data_Processed__5982.txt
30, 0.0
36, 0.0
42, 0.0
48, 0.0
54, 0.0
60, 0.0
66, 0.0
72, 0.0
78, 0.0
84, 0.0
90, 0.0
96, 0.0
102, 0.0
108, 0.0
114, 0.0
120.0, 0.00854369
126.0, 0.00263333
132.0, 0.00799374
138.0, 0.025193
144.0, 0.0307011
150.0, 0.0182443
156.0, 0.00965003
162.0, 0.00312663
168.0, 0.00295787
174.0, 0.00423057
180.0, 0.00399959
186.0, 0.0061383
192.0, 0.00361115
198.0, 0.0043571
204.0, 0.00232756
210.0, 0.00059949
216.0, 0.000977541
222.0, 0.001664
228.0, 0.0024022
234.0, 0.00241424
240.0, 0.000668848
246.0, 0.00167996
252.0, 0.00167883
258.0, 0.000719788
264.0, 0.0027068
270.0, 0.00118983
276.0, 0.00310138
282.0, 0.00471711
288.0, 0.0111847
294.0, 0.0168486
300.0, 0.021055
306.0, 0.0229213
312.0, 0.0222224
318.0, 0.0216514
324.0, 0.0222193
330.0, 0.0208248
336.0, 0.0204208
342.0, 0.020973
348.0, 0.019463
354.0, 0.0208973
360.0, 0.0197168
366.0, 0.0184065
372.0, 0.0184367
378.0, 0.0169626
384.0, 0.0163616
390.0, 0.013749
396.0, 0.0145908
402.0, 0.0135321
408.0, 0.0135759
414.0, 0.0123971
420.0, 0.0149603
426.0, 0.0161127
432.0, 0.0168854
438.0, 0.0165893
444.0, 0.0174044
450.0, 0.0181333
456.0, 0.0189461
462.0, 0.017837
468.0, 0.0209575
474.0, 0.0214895
480.0, 0.022391
486.0, 0.023624
492.0, 0.0257117
498.0, 0.0285613
504.0, 0.0362113
510.0, 0.0670176
516.0, 0.267432
522.0, 0.995355
528.0, 0.341108
534.0, 0.0785353
540.0, 0.0340551
546.0, 0.0189145
552.0, 0.0144735
558.0, 0.00977638
564.0, 0.0100044
570.0, 0.00729022
576.0, 0.00638426
582.0, 0.00372238
588.0, 0.00277835
594.0, 0.00113953
600.0, 0.00227952
606.0, 0.00190596
612.0, 0.00226976
618.0, 0.00420462
624.0, 0.00512702
630.0, 0.00289566
636.0, 0.00202651
642.0, 0.00187491
648.0, 0.00239053
654.0, 0.00174868
660.0, 0.00109136
666.0, 0.00214968
672.0, 0.00260114
678.0, 0.000495337
684.0, 0.00197655
690.0, 0.000740759
696.0, 0.000268009
702.0, 0.0008638
708.0, 0.00026927
714.0, 0.00174242
720.0, 0.000594779
726.0, 0.000289048
732.0, 0.0020547
738.0, 0.00076184
744.0, 0.000753434
750.0, 0.000995184
756.0, 0.000288286
762.0, 0.000589088
768.0, 0.000257987
774.0, 0.000772428
780.0, 0.00107187
786.0, 0.000691371
792.0, 0.0019635
798.0, 0.00176663
804.0, 0.000672129
810.0, 0.00256459
816.0, 0.00144528
822.0, 0.00246394
828.0, 0.00371317
834.0, 0.0021514
840.0, 0.00272598
846.0, 0.0016298
852.0, 0.00338887
858.0, 0.00147229
864.0, 0.00214478
870.0, 0.00171733
876.0, 0.00234536
882.0, 0.00272551
888.0, 0.00100961
894.0, 0.00295027
900.0, 0.00321344
906.0, 0.00296024
912.0, 0.00405229
918.0, 0.00424978
924.0, 0.00431852
930.0, 0.00779076
936.0, 0.0171792
942.0, 0.0255676
948.0, 0.0301301
954.0, 0.0327396
960.0, 0.0327922
966.0, 0.032964
972.0, 0.0346276
978.0, 0.0342583
984.0, 0.0339021
990.0, 0.0303426
996.0, 0.0216993
1002.0, 0.0155239
1008.0, 0.0113225
1014.0, 0.00968664
1020.0, 0.00927636
1026.0, 0.00743636
1032.0, 0.00744661
1038.0, 0.00555628
1044.0, 0.00551312
1050.0, 0.00409536
1056.0, 0.00389769
1062.0, 0.0034346
1068.0, 0.00270405
1074.0, 0.0027298
1080.0, 0.00353763
1086.0, 0.00289863
1092.0, 0.00304635
1098.0, 0.00335103
1104.0, 0.000595513
1110.0, 0.00226584
1116.0, 0.00225183
1122.0, 0.00834159
1128.0, 0.0014487
1134.0, 0.000351841
1140.0, 0.00116139
1146.0, 0.000419135
1152.0, 0.00102045
1158.0, 0.000478322
1164.0, 0.000234495
1170.0, 0.000660469
1176.0, 0.000642028
1182.0, 0.00044462
1188.0, 0.00106634
1194.0, 0.000634889
1200.0, 0.000619335
1206.0, 0.00149877
1212.0, 0.00158091
1218.0, 0.00450323
1224.0, 0.0100606
1230.0, 0.00794491
1236.0, 0.00116936
1242.0, 0.0019508
1248.0, 0.000832323
1254.0, 0.00110687
1260.0, 0.000109963
1266.0, 0.00119077
1272.0, 0.000746685
1278.0, 0.000981057
1284.0, 0.000902356
1290.0, 0.00187471
1296.0, 0.00123615
1302.0, 0.00113101
1308.0, 0.000106673
1314.0, 0.00116807
1320.0, 0.000106221
1326.0, 0.000846653
1332.0, 0.00095988
1338.0, 0.00126947
1344.0, 0.00212502
1350.0, 0.00203925
1356.0, 0.000840841
1362.0, 0.00158911
1368.0, 0.00190304
1374.0, 0.00128816
1380.0, 0.001396
1386.0, 0.00257377
1392.0, 0.00394771
1398.0, 0.00132347
1404.0, 0.00231951
1410.0, 0.00168266
1416.0, 0.00183941
1422.0, 0.00202657
1428.0, 0.00195218
1434.0, 0.00169638
1440.0, 0.000944961
1446.0, 0.00233006
1452.0, 0.00177235
1458.0, 0.00257363
1464.0, 0.0023614
1470.0, 0.00309594
1476.0, 0.000650446
1482.0, 0.0023514
1488.0, 0.00159801
1494.0, 0.000662425
1500.0, 0.00128154
1506.0, 0.000800835
1512.0, 0.00129108
1518.0, 9.90328e-05
1524, 0.0
1530, 0.0
1536, 0.0
1542, 0.0
1548, 0.0
1554, 0.0
1560, 0.0
1566, 0.0
1572, 0.0
1578, 0.0
1584, 0.0
1590, 0.0
1596, 0.0
1599, 0.0