Folder: 1D_CNN_For_Mineral_Classification/raw data/Dataset_2/Silicon (part 2)

File: Silicon__R050145-3__Raman__514__90__ccw__Raman_Data_Processed__5984.txt
30, 0.0
36, 0.0
42, 0.0
48, 0.0
54, 0.0
60, 0.0
66, 0.0
72, 0.0
78, 0.0
84, 0.0
90, 0.0
96, 0.0
102, 0.0
108, 0.0
114, 0.0
120.0, 0.0278278
126.0, 0.00857265
132.0, 0.0167635
138.0, 0.0584044
144.0, 0.0698179
150.0, 0.0550399
156.0, 0.0457175
162.0, 0.0240451
168.0, 0.0269729
174.0, 0.0250174
180.0, 0.0227613
186.0, 0.0229112
192.0, 0.0254549
198.0, 0.0127448
204.0, 0.0126328
210.0, 0.00244385
216.0, 0.00296497
222.0, 0.00744717
228.0, 0.00471854
234.0, 0.00157367
240.0, 0.00503716
246.0, 0.00817072
252.0, 0.0041993
258.0, 0.00272582
264.0, 0.00258382
270.0, 0.00253895
276.0, 0.00754339
282.0, 0.021115
288.0, 0.0506613
294.0, 0.0610291
300.0, 0.0789153
306.0, 0.0849207
312.0, 0.0775995
318.0, 0.0810487
324.0, 0.0773462
330.0, 0.0783894
336.0, 0.0813999
342.0, 0.0744554
348.0, 0.0737393
354.0, 0.0680604
360.0, 0.0742992
366.0, 0.0625136
372.0, 0.0615597
378.0, 0.0559881
384.0, 0.054307
390.0, 0.0504505
396.0, 0.0511097
402.0, 0.0493348
408.0, 0.0475438
414.0, 0.0465792
420.0, 0.0478241
426.0, 0.0615079
432.0, 0.0591446
438.0, 0.0577956
444.0, 0.0567487
450.0, 0.0524282
456.0, 0.0569559
462.0, 0.0563031
468.0, 0.0628403
474.0, 0.0635437
480.0, 0.0620296
486.0, 0.0665166
492.0, 0.0656956
498.0, 0.0666246
504.0, 0.0808664
510.0, 0.109099
516.0, 0.385702
522.0, 0.965682
528.0, 0.373861
534.0, 0.108318
540.0, 0.0574267
546.0, 0.0395944
552.0, 0.0292694
558.0, 0.0282073
564.0, 0.0241867
570.0, 0.0270401
576.0, 0.0217427
582.0, 0.0114707
588.0, 0.00661002
594.0, 0.00741118
600.0, 4.50975e-05
606.0, 0.00424599
612.0, 0.0054001
618.0, 0.00970328
624.0, 0.010672
630.0, 0.00537404
636.0, 0.00513753
642.0, 0.00251927
648.0, 0.00845998
654.0, 0.00531593
660.0, 0.0085569
666.0, 0.00596577
672.0, 0.00910139
678.0, 0.00566011
684.0, 0.00114596
690.0, 0.00174265
696.0, 0.00577732
702.0, 0.00482264
708.0, 0.0012182
714.0, 0.000905212
720.0, 0.000172618
726.0, 0.00386471
732.0, 0.00184743
738.0, 0.0013411
744.0, 0.00225286
750.0, 0.000269134
756.0, 0.00229359
762.0, 0.00260637
768.0, 0.00125306
774.0, 0.00361329
780.0, 0.00163973
786.0, 0.00232905
792.0, 0.00339023
798.0, 0.00244127
804.0, 0.00232311
810.0, 0.00861458
816.0, 0.00503884
822.0, 0.00877766
828.0, 0.00552871
834.0, 0.0114674
840.0, 0.0083401
846.0, 0.00581029
852.0, 0.010387
858.0, 0.00294466
864.0, 0.0136149
870.0, 0.00222137
876.0, 0.00404261
882.0, 0.00933165
888.0, 0.00584094
894.0, 0.00599299
900.0, 0.0142132
906.0, 0.00630413
912.0, 0.0144815
918.0, 0.0116703
924.0, 0.0209912
930.0, 0.0325144
936.0, 0.0579609
942.0, 0.0939461
948.0, 0.105415
954.0, 0.117
960.0, 0.117178
966.0, 0.117038
972.0, 0.124631
978.0, 0.127289
984.0, 0.122097
990.0, 0.109909
996.0, 0.0770287
1002.0, 0.0560781
1008.0, 0.047249
1014.0, 0.0318437
1020.0, 0.0338214
1026.0, 0.0304413
1032.0, 0.0207567
1038.0, 0.0215564
1044.0, 0.0193504
1050.0, 0.0148147
1056.0, 0.0121651
1062.0, 0.00970422
1068.0, 0.0115461
1074.0, 0.012638
1080.0, 0.0129997
1086.0, 0.0118837
1092.0, 0.0111611
1098.0, 0.00953125
1104.0, 0.0142318
1110.0, 0.00764013
1116.0, 0.0114353
1122.0, 0.00754439
1128.0, 0.00778075
1134.0, 0.00110755
1140.0, 0.00279122
1146.0, 0.00252919
1152.0, 0.00502869
1158.0, 0.0040438
1164.0, 0.00457933
1170.0, 0.00219065
1176.0, 0.00286126
1182.0, 0.00812571
1188.0, 0.00541895
1194.0, 0.00172361
1200.0, 0.00772684
1206.0, 0.0065794
1212.0, 0.00667711
1218.0, 0.00575041
1224.0, 0.00814134
1230.0, 0.00739138
1236.0, 0.00898332
1242.0, 0.000820943
1248.0, 0.00560538
1254.0, 0.00627877
1260.0, 0.00853105
1266.0, 0.0103781
1272.0, 0.0058526
1278.0, 0.00357601
1284.0, 0.00481565
1290.0, 0.00593895
1296.0, 0.00320639
1302.0, 0.00199587
1308.0, 0.00127667
1314.0, 0.00382446
1320.0, 0.00275731
1326.0, 0.00267547
1332.0, 0.00849702
1338.0, 0.0115587
1344.0, 0.00907651
1350.0, 0.00463973
1356.0, 0.00458543
1362.0, 0.0101291
1368.0, 0.00870002
1374.0, 0.00599763
1380.0, 0.0091798
1386.0, 0.0121505
1392.0, 0.0105282
1398.0, 0.0117933
1404.0, 0.0104466
1410.0, 0.0134759
1416.0, 0.0116561
1422.0, 0.00753765
1428.0, 0.00403914
1434.0, 0.00700017
1440.0, 0.0118241
1446.0, 0.0110109
1452.0, 0.0111576
1458.0, 0.0073746
1464.0, 0.0117077
1470.0, 0.0102452
1476.0, 0.00689448
1482.0, 0.00960335
1488.0, 0.00479824
1494.0, 0.006117
1500.0, 0.00299135
1506.0, 0.00629361
1512.0, 0.000969695
1518, 0.0
1524, 0.0
1530, 0.0
1536, 0.0
1542, 0.0
1548, 0.0
1554, 0.0
1560, 0.0
1566, 0.0
1572, 0.0
1578, 0.0
1584, 0.0
1590, 0.0
1596, 0.0
1599, 0.0