Folder: 1D_CNN_For_Mineral_Classification/raw data/Dataset_2/Yttriumaluminumgarnet

File: Yttriumaluminumgarnet__R110105__Raman__532__0__unoriented__Raman_Data_Processed__35690.txt
30, 0.0
36, 0.0
42, 0.0
48, 0.0
54, 0.0
60, 0.0
66, 0.0
72, 0.0
78, 0.0
84, 0.0
90, 0.0
96, 0.0
102, 0.0
108, 0.0
114, 0.0
120, 0.0
126.0, 0.0017562
132.0, 0.0160663
138.0, 0.0400843
144.0, 0.0818298
150.0, 0.117806
156.0, 0.195088
162.0, 0.305676
168.0, 0.244202
174.0, 0.288122
180.0, 0.253728
186.0, 0.129697
192.0, 0.0534914
198.0, 0.0218936
204.0, 0.0272251
210.0, 0.0392339
216.0, 0.109021
222.0, 0.0208696
228.0, 0.0098584
234.0, 8.6453e-05
240.0, 0.044907
246.0, 0.1803
252.0, 0.345985
258.0, 0.82815
264.0, 0.315998
270.0, 0.069816
276.0, 0.045034
282.0, 0.0366817
288.0, 0.0242408
294.0, 0.058955
300.0, 0.012224
306.0, 0.00485922
312.0, 0.00212955
318.0, 0.0029106
324.0, 0.0210757
330.0, 0.064641
336.0, 0.158962
342.0, 0.117234
348.0, 0.0332564
354.0, 0.110846
360.0, 0.273261
366.0, 0.562805
372.0, 0.675302
378.0, 0.139595
384.0, 0.0848856
390.0, 0.162528
396.0, 0.350945
402.0, 0.573387
408.0, 0.227478
414.0, 0.0368887
420.0, 0.0101531
426.0, 0.00218034
432.0, 0.0016037
438.0, 0.00322855
444.0, 0.00358646
450.0, 0.00340015
456.0, 0.00340191
462.0, 0.00188352
468.0, 0.000698158
474.0, 0.00490964
480.0, 0.0079972
486.0, 0.00465479
492.0, 0.00843884
498.0, 0.010738
504.0, 0.00841603
510.0, 0.00379626
516.0, 0.00390757
522.0, 0.00911193
528.0, 0.0213845
534.0, 0.0432802
540.0, 0.077529
546.0, 0.08287
552.0, 0.045548
558.0, 0.0474478
564.0, 0.0217715
570.0, 0.0115735
576.0, 0.0116688
582.0, 0.0153876
588.0, 0.0189676
594.0, 0.0135692
600.0, 0.0141896
606.0, 0.00878881
612.0, 0.00585544
618.0, 0.00708101
624.0, 0.00448631
630.0, 0.00344923
636.0, 0.00490174
642.0, 0.000224027
648.0, 0.00313134
654.0, 0.000804045
660.0, 0.00146685
666.0, 0.000535258
672.0, 0.00897508
678.0, 0.0227529
684.0, 0.0651185
690.0, 0.101085
696.0, 0.0554788
702.0, 0.0528883
708.0, 0.103744
714.0, 0.185186
720.0, 0.134784
726.0, 0.036099
732.0, 0.00836324
738.0, 0.00134851
744.0, 0.00907293
750.0, 0.0292334
756.0, 0.0445099
762.0, 0.0577751
768.0, 0.132313
774.0, 0.292113
780.0, 0.497157
786.0, 0.289368
792.0, 0.10004
798.0, 0.038053
804.0, 0.012409
810.0, 0.00454215
816.0, 0.00513291
822.0, 0.00398547
828.0, 0.00588559
834.0, 0.00670009
840.0, 0.00308402
846.0, 0.0276381
852.0, 0.0619903
858.0, 0.0726251
864.0, 0.0323582
870.0, 0.012187
876.0, 0.011589
882.0, 0.00354394
888.0, 0.00719009
894.0, 0.00276434
900.0, 0.00570329
906.0, 0.0106364
912.0, 0.0120683
918.0, 0.0153826
924.0, 0.0231753
930.0, 0.00683502
936.0, 0.0145562
942.0, 0.00542636
948.0, 0.00596649
954.0, 0.00722868
960.0, 0.0114785
966.0, 0.0262312
972.0, 0.0314912
978.0, 0.0135864
984.0, 0.0076112
990.0, 0.00179663
996.0, 0.00948455
1002.0, 0.00052959
1008.0, 0.00515932
1014.0, 0.00218554
1020.0, 0.00828082
1026.0, 0.00820552
1032.0, 0.00703718
1038.0, 0.0103378
1044.0, 0.00505349
1050.0, 0.00818241
1056.0, 0.00430025
1062.0, 0.00973965
1068.0, 0.0107483
1074.0, 0.00570003
1080.0, 0.00480213
1086.0, 0.0091799
1092.0, 0.0138739
1098.0, 0.0126068
1104.0, 0.0097318
1110.0, 0.0128791
1116.0, 0.0113225
1122.0, 0.00863003
1128.0, 0.00647389
1134.0, 0.00095203
1140.0, 0.00684069
1146.0, 0.00151098
1152.0, 0.00194261
1158.0, 0.0025361
1164.0, 0.00118766
1170.0, 0.000187599
1176.0, 0.00751463
1182.0, 0.0119881
1188.0, 0.0211263
1194.0, 0.0204626
1200.0, 0.0188131
1206.0, 0.0177532
1212.0, 0.0157507
1218.0, 0.00787154
1224.0, 0.00927948
1230.0, 0.00969232
1236.0, 0.00217007
1242.0, 0.00189872
1248.0, 0.009735
1254.0, 0.0106986
1260.0, 0.0158373
1266.0, 0.0167028
1272.0, 0.0108169
1278.0, 0.0182858
1284.0, 0.00828578
1290.0, 0.00385057
1296.0, 0.00352967
1302.0, 0.00058957
1308, 0.0
1314, 0.0
1320, 0.0
1326, 0.0
1332, 0.0
1338, 0.0
1344, 0.0
1350, 0.0
1356, 0.0
1362, 0.0
1368, 0.0
1374, 0.0
1380, 0.0
1386, 0.0
1392, 0.0
1398, 0.0
1404, 0.0
1410, 0.0
1416, 0.0
1422, 0.0
1428, 0.0
1434, 0.0
1440, 0.0
1446, 0.0
1452, 0.0
1458, 0.0
1464, 0.0
1470, 0.0
1476, 0.0
1482, 0.0
1488, 0.0
1494, 0.0
1500, 0.0
1506, 0.0
1512, 0.0
1518, 0.0
1524, 0.0
1530, 0.0
1536, 0.0
1542, 0.0
1548, 0.0
1554, 0.0
1560, 0.0
1566, 0.0
1572, 0.0
1578, 0.0
1584, 0.0
1590, 0.0
1596, 0.0
1599, 0.0

File: Yttriumaluminumgarnet__R150067__Raman__532__0__unoriented__Raman_Data_Processed__38851.txt
30, 0.0
36, 0.0
42, 0.0
48, 0.0
54, 0.0
60, 0.0
66, 0.0
72, 0.0
78, 0.0
84, 0.0
90.0, 5.62314e-06
96.0, 0.00141738
102.0, 0.00339929
108.0, 0.00741131
114.0, 0.00302134
120.0, 0.000150833
126.0, 0.000268747
132.0, 0.0020338
138.0, 0.00450254
144.0, 0.0170887
150.0, 0.0192161
156.0, 0.0310087
162.0, 0.0882649
168.0, 0.0257481
174.0, 0.0257647
180.0, 0.0161161
186.0, 0.00657537
192.0, 0.00485868
198.0, 0.00860076
204.0, 0.0163558
210.0, 0.0257632
216.0, 0.0264686
222.0, 0.017827
228.0, 0.00177283
234.0, 0.00132224
240.0, 0.00165695
246.0, 0.0149985
252.0, 0.0235853
258.0, 0.072577
264.0, 0.0729292
270.0, 0.0242004
276.0, 0.0151557
282.0, 0.00685007
288.0, 0.00347003
294.0, 0.00721752
300.0, 0.00106658
306.0, 0.00138265
312.0, 0.00241285
318.0, 0.00745209
324.0, 0.0192954
330.0, 0.0488901
336.0, 0.106201
342.0, 0.204482
348.0, 0.042083
354.0, 0.0226586
360.0, 0.0579402
366.0, 0.0700913
372.0, 0.164303
378.0, 0.0392778
384.0, 0.0217913
390.0, 0.0327773
396.0, 0.0768056
402.0, 0.233739
408.0, 0.154348
414.0, 0.0388838
420.0, 0.0159632
426.0, 0.00996334
432.0, 0.000586627
438.0, 2.08791e-05
444.0, 0.00116086
450.0, 0.000946026
456.0, 0.000431271
462.0, 0.00259369
468.0, 0.00651923
474.0, 0.00669309
480.0, 0.0292067
486.0, 0.0239319
492.0, 0.00774621
498.0, 0.00916852
504.0, 0.0079458
510.0, 0.00789864
516.0, 0.00261523
522.0, 0.000413803
528.0, 0.000386391
534.0, 0.00253426
540.0, 0.00652399
546.0, 0.0107347
552.0, 0.0049998
558.0, 0.0116191
564.0, 0.00750638
570.0, 0.00219542
576.0, 0.0026583
582.0, 0.00400623
588.0, 0.00536356
594.0, 0.0073632
600.0, 0.00143321
606.0, 0.000464463
612.0, 0.00145466
618.0, 0.000552271
624.0, 0.00124077
630.0, 0.000269245
636.0, 0.00143869
642.0, 0.000319888
648.0, 0.00325449
654.0, 0.00981259
660.0, 0.0229054
666.0, 0.0453468
672.0, 0.0481434
678.0, 0.0249842
684.0, 0.0123534
690.0, 0.0128891
696.0, 0.00299199
702.0, 0.00204704
708.0, 0.0105603
714.0, 0.0219307
720.0, 0.0158982
726.0, 0.000210029
732.0, 0.0013451
738.0, 0.011596
744.0, 0.0545962
750.0, 0.135753
756.0, 0.0900995
762.0, 0.0871803
768.0, 0.0586458
774.0, 0.0477095
780.0, 0.0964865
786.0, 0.0563287
792.0, 0.00551119
798.0, 6.15739e-05
804.0, 0.00657194
810.0, 0.0193063
816.0, 0.0390765
822.0, 0.0410976
828.0, 0.083316
834.0, 0.0472743
840.0, 0.00588877
846.0, 0.00124465
852.0, 0.0131607
858.0, 0.0328621
864.0, 0.0432883
870.0, 0.0193075
876.0, 0.00425169
882.0, 0.00105465
888.0, 0.000436093
894.0, 0.00790288
900.0, 0.0241844
906.0, 0.0539858
912.0, 0.0800993
918.0, 0.109559
924.0, 0.128792
930.0, 0.109971
936.0, 0.0705452
942.0, 0.0407357
948.0, 0.0226729
954.0, 0.0187254
960.0, 0.0308823
966.0, 0.0770268
972.0, 0.194964
978.0, 0.111604
984.0, 0.0283913
990.0, 0.00673611
996.0, 0.000349852
1002.0, 0.000883545
1008.0, 0.000721723
1014.0, 0.000228129
1020.0, 0.00144195
1026.0, 0.00451528
1032.0, 0.00932853
1038.0, 0.0162644
1044.0, 0.0270235
1050.0, 0.0445841
1056.0, 0.0634947
1062.0, 0.0789433
1068.0, 0.0841242
1074.0, 0.0729382
1080.0, 0.0512512
1086.0, 0.0280441
1092.0, 0.0102354
1098.0, 0.000598668
1104.0, 0.00418102
1110.0, 0.0011876
1116.0, 0.00530486
1122.0, 0.0146287
1128.0, 0.0240875
1134.0, 0.0399038
1140.0, 0.0606304
1146.0, 0.0894336
1152.0, 0.131185
1158.0, 0.186186
1164.0, 0.259785
1170.0, 0.358009
1176.0, 0.481371
1182.0, 0.637632
1188.0, 0.853807
1194.0, 0.999805
1200.0, 0.833782
1206.0, 0.521589
1212.0, 0.283186
1218.0, 0.133426
1224.0, 0.045643
1230.0, 0.00808536
1236.0, 9.68543e-05
1242.0, 0.00199304
1248.0, 0.00232457
1254.0, 0.0011633
1260.0, 0.00620491
1266.0, 0.0126958
1272.0, 0.0166332
1278.0, 0.00979403
1284.0, 0.00607002
1290.0, 0.0031036
1296.0, 0.00138809
1302, 0.0
1308, 0.0
1314, 0.0
1320, 0.0
1326, 0.0
1332, 0.0
1338, 0.0
1344, 0.0
1350, 0.0
1356, 0.0
1362, 0.0
1368, 0.0
1374, 0.0
1380, 0.0
1386, 0.0
1392, 0.0
1398, 0.0
1404, 0.0
1410, 0.0
1416, 0.0
1422, 0.0
1428, 0.0
1434, 0.0
1440, 0.0
1446, 0.0
1452, 0.0
1458, 0.0
1464, 0.0
1470, 0.0
1476, 0.0
1482, 0.0
1488, 0.0
1494, 0.0
1500, 0.0
1506, 0.0
1512, 0.0
1518, 0.0
1524, 0.0
1530, 0.0
1536, 0.0
1542, 0.0
1548, 0.0
1554, 0.0
1560, 0.0
1566, 0.0
1572, 0.0
1578, 0.0
1584, 0.0
1590, 0.0
1596, 0.0
1599, 0.0

File: Yttriumaluminumgarnet__R150067__Raman__780__0__unoriented__Raman_Data_Processed__38853.txt
30, 0.0
36, 0.0
42, 0.0
48, 0.0
54, 0.0
60, 0.0
66, 0.0
72, 0.0
78, 0.0
84, 0.0
90, 0.0
96.0, 0.00290875
102.0, 0.0058192
108.0, 0.0120084
114.0, 0.0121525
120.0, 0.0203845
126.0, 0.017664
132.0, 0.00962901
138.0, 0.0022514
144.0, 0.00218081
150.0, 0.00404081
156.0, 2.98183e-05
162.0, 0.00562182
168.0, 0.0164193
174.0, 0.0377811
180.0, 0.0748477
186.0, 0.129945
192.0, 0.196931
198.0, 0.182633
204.0, 0.151645
210.0, 0.143961
216.0, 0.0927698
222.0, 0.0982499
228.0, 0.160267
234.0, 0.269636
240.0, 0.386187
246.0, 0.336152
252.0, 0.174615
258.0, 0.0727414
264.0, 0.022955
270.0, 0.000887975
276.0, 0.00289884
282.0, 0.0422764
288.0, 0.119913
294.0, 0.193288
300.0, 0.136814
306.0, 0.0732054
312.0, 0.0471941
318.0, 0.0379065
324.0, 0.0348765
330.0, 0.0220769
336.0, 0.00497437
342.0, 0.0164957
348.0, 0.00638328
354.0, 0.0249056
360.0, 0.078822
366.0, 0.157378
372.0, 0.270475
378.0, 0.400669
384.0, 0.509388
390.0, 0.479723
396.0, 0.398795
402.0, 0.31559
408.0, 0.314758
414.0, 0.309019
420.0, 0.364563
426.0, 0.498755
432.0, 0.578157
438.0, 0.667784
444.0, 0.944479
450.0, 0.875537
456.0, 0.477052
462.0, 0.205807
468.0, 0.0530219
474.0, 0.0150117
480.0, 0.00508982
486.0, 0.0930476
492.0, 0.262721
498.0, 0.414392
504.0, 0.522617
510.0, 0.609247
516.0, 0.646752
522.0, 0.47959
528.0, 0.218501
534.0, 0.0591494
540.0, 0.00357826
546.0, 0.011449
552.0, 0.022761
558.0, 0.117544
564.0, 0.271138
570.0, 0.491891
576.0, 0.762852
582.0, 0.924809
588.0, 0.695172
594.0, 0.333233
600.0, 0.124755
606.0, 0.0247087
612.0, 0.00828406
618.0, 0.00860573
624.0, 0.0871357
630.0, 0.256024
636.0, 0.527729
642.0, 0.835236
648.0, 0.877044
654.0, 0.523773
660.0, 0.230524
666.0, 0.0955949
672.0, 0.0468897
678.0, 0.0494966
684.0, 0.0863777
690.0, 0.126997
696.0, 0.13607
702.0, 0.109224
708.0, 0.0651181
714.0, 0.0263774
720.0, 0.00227707
726.0, 0.00782471
732.0, 0.00179661
738.0, 0.0333472
744.0, 0.0929536
750.0, 0.162093
756.0, 0.208788
762.0, 0.208623
768.0, 0.169306
774.0, 0.115735
780.0, 0.0719668
786.0, 0.0361385
792.0, 0.0130676
798.0, 0.00258486
804.0, 0.00117511
810.0, 0.000924268
816.0, 0.003048
822.0, 0.00817248
828.0, 0.0143926
834.0, 0.0245676
840.0, 0.0305078
846.0, 0.0262698
852.0, 0.0148053
858.0, 0.00600717
864.0, 0.00131723
870.0, 0.00117061
876.0, 0.000397417
882.0, 0.00088332
888.0, 0.00180042
894.0, 0.00576903
900.0, 0.00794117
906.0, 0.00545192
912.0, 0.00526911
918.0, 0.00464485
924.0, 0.00372302
930.0, 0.00396107
936.0, 0.00405193
942.0, 0.002303
948.0, 0.00101178
954.0, 0.00285952
960.0, 0.00809225
966.0, 0.0142091
972.0, 0.0244707
978.0, 0.0331489
984.0, 0.0348706
990.0, 0.0309618
996.0, 0.0234104
1002.0, 0.0167886
1008.0, 0.0100744
1014.0, 0.00262154
1020.0, 0.00016051
1026.0, 0.0029281
1032.0, 0.00180746
1038.0, 0.00862857
1044.0, 0.0348041
1050.0, 0.0382899
1056.0, 0.0316255
1062.0, 0.0310816
1068.0, 0.0273789
1074.0, 0.0424259
1080.0, 0.103427
1086.0, 0.251373
1092.0, 0.465283
1098.0, 0.360801
1104.0, 0.130324
1110.0, 0.0465538
1116.0, 0.0157117
1122.0, 0.00388332
1128.0, 0.00265402
1134.0, 0.00352124
1140.0, 0.0246803
1146.0, 0.0486716
1152.0, 0.0208576
1158.0, 0.0111791
1164.0, 0.0318316
1170.0, 0.0559682
1176.0, 0.066412
1182.0, 0.0643329
1188.0, 0.059812
1194.0, 0.0516814
1200.0, 0.0527928
1206.0, 0.0421927
1212.0, 0.0232895
1218.0, 0.0161198
1224.0, 0.0463206
1230.0, 0.191529
1236.0, 0.368602
1242.0, 0.163209
1248.0, 0.0431464
1254.0, 0.00399827
1260.0, 0.0108872
1266.0, 0.075063
1272.0, 0.0489013
1278.0, 0.0210243
1284.0, 0.0072578
1290, 0.0
1296, 0.0
1302, 0.0
1308, 0.0
1314, 0.0
1320, 0.0
1326, 0.0
1332, 0.0
1338, 0.0
1344, 0.0
1350, 0.0
1356, 0.0
1362, 0.0
1368, 0.0
1374, 0.0
1380, 0.0
1386, 0.0
1392, 0.0
1398, 0.0
1404, 0.0
1410, 0.0
1416, 0.0
1422, 0.0
1428, 0.0
1434, 0.0
1440, 0.0
1446, 0.0
1452, 0.0
1458, 0.0
1464, 0.0
1470, 0.0
1476, 0.0
1482, 0.0
1488, 0.0
1494, 0.0
1500, 0.0
1506, 0.0
1512, 0.0
1518, 0.0
1524, 0.0
1530, 0.0
1536, 0.0
1542, 0.0
1548, 0.0
1554, 0.0
1560, 0.0
1566, 0.0
1572, 0.0
1578, 0.0
1584, 0.0
1590, 0.0
1596, 0.0
1599, 0.0

File: Yttriumaluminumgarnet__X090003__Raman__532__0__unoriented__Raman_Data_Processed__31994.txt
30, 0.0
36, 0.0
42, 0.0
48, 0.0
54, 0.0
60, 0.0
66, 0.0
72, 0.0
78, 0.0
84, 0.0
90, 0.0
96, 0.0
102.0, 0.00314154
108.0, 0.0010596
114.0, 0.000928205
120.0, 0.0114751
126.0, 0.0288924
132.0, 0.0496863
138.0, 0.062571
144.0, 0.16976
150.0, 0.131599
156.0, 0.180004
162.0, 0.880541
168.0, 0.0527924
174.0, 0.0306397
180.0, 0.023616
186.0, 0.0200143
192.0, 0.0141042
198.0, 0.0131795
204.0, 0.023594
210.0, 0.0377094
216.0, 0.11111
222.0, 0.0363623
228.0, 0.00193204
234.0, 0.00236195
240.0, 0.0234552
246.0, 0.107269
252.0, 0.211668
258.0, 0.69447
264.0, 0.312195
270.0, 0.0401551
276.0, 0.0110529
282.0, 0.0110919
288.0, 0.0145915
294.0, 0.0547317
300.0, 0.00561892
306.0, 0.0047513
312.0, 0.00138373
318.0, 0.00482746
324.0, 0.022351
330.0, 0.0642261
336.0, 0.20091
342.0, 0.164825
348.0, 0.0403129
354.0, 0.0849562
360.0, 0.203559
366.0, 0.527862
372.0, 0.789451
378.0, 0.158315
384.0, 0.0857963
390.0, 0.160542
396.0, 0.389716
402.0, 0.829702
408.0, 0.244774
414.0, 0.0369727
420.0, 0.0103188
426.0, 0.00222078
432.0, 0.00173914
438.0, 0.0077989
444.0, 0.00100827
450.0, 0.00103143
456.0, 0.00194293
462.0, 0.000666874
468.0, 0.000990653
474.0, 0.00190907
480.0, 0.00464227
486.0, 0.00319221
492.0, 0.000608478
498.0, 0.00345654
504.0, 0.00398914
510.0, 0.00344451
516.0, 0.00508637
522.0, 0.00712242
528.0, 0.0157402
534.0, 0.0381136
540.0, 0.0651679
546.0, 0.0748859
552.0, 0.0414939
558.0, 0.0521975
564.0, 0.0252826
570.0, 0.0132848
576.0, 0.0097148
582.0, 0.0074753
588.0, 0.00545674
594.0, 0.00352419
600.0, 0.00175305
606.0, 0.00226071
612.0, 0.00238845
618.0, 0.00324127
624.0, 0.00206815
630.0, 0.000230305
636.0, 0.00111338
642.0, 0.000721224
648.0, 0.000636838
654.0, 0.00137085
660.0, 0.000234449
666.0, 0.000223244
672.0, 0.00298564
678.0, 0.0162142
684.0, 0.0465397
690.0, 0.0847653
696.0, 0.0408083
702.0, 0.0410317
708.0, 0.0872716
714.0, 0.17144
720.0, 0.134757
726.0, 0.0319195
732.0, 0.00452294
738.0, 0.00207339
744.0, 0.0043655
750.0, 0.0209642
756.0, 0.0352999
762.0, 0.0509282
768.0, 0.130676
774.0, 0.318684
780.0, 0.642127
786.0, 0.401392
792.0, 0.132838
798.0, 0.056868
804.0, 0.0236962
810.0, 0.0092614
816.0, 0.00348537
822.0, 0.00087717
828.0, 0.00185123
834.0, 0.00199112
840.0, 0.00687155
846.0, 0.0251712
852.0, 0.0559168
858.0, 0.0637979
864.0, 0.0245209
870.0, 0.00688568
876.0, 0.00203746
882.0, 0.000107552
888.0, 0.00126824
894.0, 0.000765946
900.0, 0.00143604
906.0, 0.00662058
912.0, 0.00825992
918.0, 0.0122057
924.0, 0.0135272
930.0, 0.0118236
936.0, 0.0087824
942.0, 0.00758722
948.0, 0.00332014
954.0, 0.00252916
960.0, 0.00486764
966.0, 0.0104173
972.0, 0.0170859
978.0, 0.00680216
984.0, 0.0027374
990.0, 0.000557486
996.0, 0.000276668
1002.0, 0.000472201
1008.0, 0.000291059
1014.0, 0.00050413
1020.0, 0.000561545
1026.0, 0.000885016
1032.0, 0.00194041
1038.0, 0.00258027
1044.0, 0.0013428
1050.0, 0.0035181
1056.0, 0.00509719
1062.0, 0.00810299
1068.0, 0.00888808
1074.0, 0.00716811
1080.0, 0.00418772
1086.0, 0.00490967
1092.0, 0.00446273
1098.0, 0.0036449
1104.0, 0.00339022
1110.0, 0.00260988
1116.0, 0.00213265
1122.0, 0.00014486
1128.0, 0.000506042
1134.0, 0.0006885
1140.0, 0.00443131
1146.0, 0.00664491
1152.0, 0.0139364
1158.0, 0.0192452
1164.0, 0.0282131
1170.0, 0.0415794
1176.0, 0.0579432
1182.0, 0.0771135
1188.0, 0.104385
1194.0, 0.121123
1200.0, 0.104221
1206.0, 0.0677596
1212.0, 0.0396506
1218.0, 0.0254672
1224.0, 0.0140136
1230.0, 0.00736978
1236.0, 0.00417955
1242.0, 0.002353
1248.0, 0.0023746
1254.0, 0.000408589
1260.0, 0.000423105
1266.0, 0.000652923
1272.0, 0.000357549
1278.0, 0.00172328
1284.0, 0.00286918
1290.0, 0.00168252
1296.0, 0.000771735
1302.0, 0.000153353
1308, 0.0
1314, 0.0
1320, 0.0
1326, 0.0
1332, 0.0
1338, 0.0
1344, 0.0
1350, 0.0
1356, 0.0
1362, 0.0
1368, 0.0
1374, 0.0
1380, 0.0
1386, 0.0
1392, 0.0
1398, 0.0
1404, 0.0
1410, 0.0
1416, 0.0
1422, 0.0
1428, 0.0
1434, 0.0
1440, 0.0
1446, 0.0
1452, 0.0
1458, 0.0
1464, 0.0
1470, 0.0
1476, 0.0
1482, 0.0
1488, 0.0
1494, 0.0
1500, 0.0
1506, 0.0
1512, 0.0
1518, 0.0
1524, 0.0
1530, 0.0
1536, 0.0
1542, 0.0
1548, 0.0
1554, 0.0
1560, 0.0
1566, 0.0
1572, 0.0
1578, 0.0
1584, 0.0
1590, 0.0
1596, 0.0
1599, 0.0